Trial,nBack,Degradation,Image,RT,Accuracy,Race,Gender,SubRace,SubGender
1,1,0,CFD-WF-003-003-N.jpg,NaN,1,White,Female,Multiracial,Male
1,1,0,CFD-WF-001-003-N.jpg,NaN,1,White,Female,Multiracial,Male
1,1,0,CFD-WF-001-003-N.jpg,0.395277947987779,1,White,Female,Multiracial,Male
1,1,0,CFD-BM-046-006-N.jpg,NaN,1,Black,Male,Multiracial,Male
1,1,0,CFD-LF-222-147-N.jpg,NaN,1,Latino,Female,Multiracial,Male
1,1,0,CFD-AF-236-145-N.jpg,NaN,1,Asian,Female,Multiracial,Male
1,1,0,CFD-AF-228-173-N.jpg,NaN,1,Asian,Female,Multiracial,Male
1,1,0,CFD-AF-228-173-N.jpg,0.411218187000486,1,Asian,Female,Multiracial,Male
1,1,0,CFD-LF-207-198-N.jpg,NaN,1,Latino,Female,Multiracial,Male
1,1,0,CFD-LF-207-198-N.jpg,0.375440863994299,1,Latino,Female,Multiracial,Male
2,1,0,CFD-LF-224-176-N.jpg,NaN,1,Latino,Female,Multiracial,Male
2,1,0,CFD-BM-234-172-N.jpg,NaN,1,Black,Male,Multiracial,Male
2,1,0,CFD-BM-234-172-N.jpg,0.521369752997998,1,Black,Male,Multiracial,Male
2,1,0,CFD-AF-211-066-N.jpg,NaN,1,Asian,Female,Multiracial,Male
2,1,0,CFD-BF-231-202-N.jpg,NaN,1,Black,Female,Multiracial,Male
2,1,0,CFD-BF-231-202-N.jpg,0.448994471997139,1,Black,Female,Multiracial,Male
2,1,0,CFD-BF-231-202-N.jpg,0.744759690001956,1,Black,Female,Multiracial,Male
2,1,0,CFD-AM-214-168-N.jpg,NaN,1,Asian,Male,Multiracial,Male
2,1,0,CFD-WF-014-002-N.jpg,NaN,1,White,Female,Multiracial,Male
2,1,0,CFD-BF-220-161-N.jpg,NaN,1,Black,Female,Multiracial,Male
3,1,0,CFD-BF-204-189-N.jpg,NaN,1,Black,Female,Multiracial,Male
3,1,0,CFD-LM-212-143-N.jpg,NaN,1,Latino,Male,Multiracial,Male
3,1,0,CFD-LM-212-143-N.jpg,NaN,0,Latino,Male,Multiracial,Male
3,1,0,CFD-LM-224-162-N.jpg,NaN,1,Latino,Male,Multiracial,Male
3,1,0,CFD-LM-246-087-N.jpg,NaN,1,Latino,Male,Multiracial,Male
3,1,0,CFD-BM-226-276-N.jpg,NaN,1,Black,Male,Multiracial,Male
3,1,0,CFD-AF-238-185-N.jpg,NaN,1,Asian,Female,Multiracial,Male
3,1,0,CFD-AM-239-147-N.jpg,NaN,1,Asian,Male,Multiracial,Male
3,1,0,CFD-AM-239-147-N.jpg,0.601227374005248,1,Asian,Male,Multiracial,Male
3,1,0,CFD-AM-239-147-N.jpg,0.490322393001406,1,Asian,Male,Multiracial,Male
4,1,0,CFD-LF-213-079-N.jpg,NaN,1,Latino,Female,Multiracial,Male
4,1,0,CFD-WM-255-219-N.jpg,NaN,1,White,Male,Multiracial,Male
4,1,0,CFD-AF-236-145-N.jpg,NaN,1,Asian,Female,Multiracial,Male
4,1,0,CFD-BM-224-073-N.jpg,NaN,1,Black,Male,Multiracial,Male
4,1,0,CFD-AF-246-242-N.jpg,NaN,1,Asian,Female,Multiracial,Male
4,1,0,CFD-WM-034-030-N.jpg,NaN,1,White,Male,Multiracial,Male
4,1,0,CFD-WM-034-030-N.jpg,0.399453053003526,1,White,Male,Multiracial,Male
4,1,0,CFD-WM-034-030-N.jpg,0.606978367999545,1,White,Male,Multiracial,Male
4,1,0,CFD-WM-034-030-N.jpg,0.431025209996733,1,White,Male,Multiracial,Male
4,1,0,CFD-AF-201-060-N.jpg,NaN,1,Asian,Female,Multiracial,Male
5,1,0,CFD-AF-239-171-N.jpg,NaN,1,Asian,Female,Multiracial,Male
5,1,0,CFD-BM-208-065-N.jpg,NaN,1,Black,Male,Multiracial,Male
5,1,0,CFD-BM-208-065-N.jpg,0.684471514003235,1,Black,Male,Multiracial,Male
5,1,0,CFD-BM-208-065-N.jpg,0.355715412995778,1,Black,Male,Multiracial,Male
5,1,0,CFD-BM-208-065-N.jpg,0.332176252995851,1,Black,Male,Multiracial,Male
5,1,0,CFD-BF-203-184-N.jpg,NaN,1,Black,Female,Multiracial,Male
5,1,0,CFD-WF-018-017-N.jpg,NaN,1,White,Female,Multiracial,Male
5,1,0,CFD-BM-218-132-N.jpg,NaN,1,Black,Male,Multiracial,Male
5,1,0,CFD-WM-012-001-N.jpg,NaN,1,White,Male,Multiracial,Male
5,1,0,CFD-AM-221-184-N.jpg,NaN,1,Asian,Male,Multiracial,Male
6,1,0,CFD-WF-214-122-N.jpg,NaN,1,White,Female,Multiracial,Male
6,1,0,CFD-WF-214-122-N.jpg,0.435824369997135,1,White,Female,Multiracial,Male
6,1,0,CFD-LF-228-125-N.jpg,NaN,1,Latino,Female,Multiracial,Male
6,1,0,CFD-LF-216-121-N.jpg,NaN,1,Latino,Female,Multiracial,Male
6,1,0,CFD-AM-208-143-N.jpg,NaN,1,Asian,Male,Multiracial,Male
6,1,0,CFD-AM-208-143-N.jpg,0.451560313988011,1,Asian,Male,Multiracial,Male
6,1,0,CFD-AM-208-143-N.jpg,0.515739084992674,1,Asian,Male,Multiracial,Male
6,1,0,CFD-WF-204-038-N.jpg,NaN,1,White,Female,Multiracial,Male
6,1,0,CFD-LF-240-199-N.jpg,NaN,1,Latino,Female,Multiracial,Male
6,1,0,CFD-BF-235-168-N.jpg,NaN,1,Black,Female,Multiracial,Male
7,1,0,CFD-AM-244-222-N.jpg,NaN,1,Asian,Male,Multiracial,Male
7,1,0,CFD-AF-253-130-N.jpg,NaN,1,Asian,Female,Multiracial,Male
7,1,0,CFD-AM-223-138-N.jpg,NaN,1,Asian,Male,Multiracial,Male
7,1,0,CFD-AM-243-212-N.jpg,NaN,1,Asian,Male,Multiracial,Male
7,1,0,CFD-AM-243-212-N.jpg,0.348834987991722,1,Asian,Male,Multiracial,Male
7,1,0,CFD-AM-243-212-N.jpg,0.372576499998104,1,Asian,Male,Multiracial,Male
7,1,0,CFD-BM-213-134-N.jpg,NaN,1,Black,Male,Multiracial,Male
7,1,0,CFD-AF-226-251-N.jpg,NaN,1,Asian,Female,Multiracial,Male
7,1,0,CFD-WM-006-002-N.jpg,NaN,1,White,Male,Multiracial,Male
7,1,0,CFD-WM-006-002-N.jpg,0.501465171997552,1,White,Male,Multiracial,Male
8,1,0,CFD-BF-232-187-N.jpg,NaN,1,Black,Female,Multiracial,Male
8,1,0,CFD-BF-232-187-N.jpg,0.405299885009299,1,Black,Female,Multiracial,Male
8,1,0,CFD-BF-232-187-N.jpg,0.357427625000128,1,Black,Female,Multiracial,Male
8,1,0,CFD-WM-012-001-N.jpg,0.349734349001665,0,White,Male,Multiracial,Male
8,1,0,CFD-BF-243-164-N.jpg,NaN,1,Black,Female,Multiracial,Male
8,1,0,CFD-BF-243-164-N.jpg,0.405022609993466,1,Black,Female,Multiracial,Male
8,1,0,CFD-AF-248-148-N.jpg,NaN,1,Asian,Female,Multiracial,Male
8,1,0,CFD-WF-009-001-N.jpg,NaN,1,White,Female,Multiracial,Male
8,1,0,CFD-BM-201-077-N.jpg,NaN,1,Black,Male,Multiracial,Male
8,1,0,CFD-AM-243-212-N.jpg,NaN,1,Asian,Male,Multiracial,Male
9,1,0,CFD-WM-031-003-N.jpg,NaN,1,White,Male,Multiracial,Male
9,1,0,CFD-WM-031-003-N.jpg,0.496446638004272,1,White,Male,Multiracial,Male
9,1,0,CFD-WM-031-003-N.jpg,0.55227611400187,1,White,Male,Multiracial,Male
9,1,0,CFD-WM-031-003-N.jpg,0.392676746007055,1,White,Male,Multiracial,Male
9,1,0,CFD-WM-204-031-N.jpg,NaN,1,White,Male,Multiracial,Male
9,1,0,CFD-LF-225-164-N.jpg,NaN,1,Latino,Female,Multiracial,Male
9,1,0,CFD-AF-230-193-N.jpg,NaN,1,Asian,Female,Multiracial,Male
9,1,0,CFD-AM-241-287-N.jpg,NaN,1,Asian,Male,Multiracial,Male
9,1,0,CFD-BF-236-177-N.jpg,NaN,1,Black,Female,Multiracial,Male
9,1,0,CFD-WF-023-003-N.jpg,NaN,1,White,Female,Multiracial,Male
10,1,0,CFD-LM-211-128-N.jpg,NaN,1,Latino,Male,Multiracial,Male
10,1,0,CFD-LM-240-013-N.jpg,NaN,1,Latino,Male,Multiracial,Male
10,1,0,CFD-LM-240-013-N.jpg,0.428266307004378,1,Latino,Male,Multiracial,Male
10,1,0,CFD-LM-240-013-N.jpg,0.476244801000576,1,Latino,Male,Multiracial,Male
10,1,0,CFD-LM-209-111-N.jpg,NaN,1,Latino,Male,Multiracial,Male
10,1,0,CFD-BM-226-276-N.jpg,NaN,1,Black,Male,Multiracial,Male
10,1,0,CFD-LF-214-090-N.jpg,NaN,1,Latino,Female,Multiracial,Male
10,1,0,CFD-LF-214-090-N.jpg,0.63687617200776,1,Latino,Female,Multiracial,Male
10,1,0,CFD-BF-215-177-N.jpg,NaN,1,Black,Female,Multiracial,Male
10,1,0,CFD-LM-241-125-N.jpg,NaN,1,Latino,Male,Multiracial,Male
11,1,0,CFD-BF-243-164-N.jpg,NaN,1,Black,Female,Multiracial,Male
11,1,0,CFD-LF-244-096-N.jpg,NaN,1,Latino,Female,Multiracial,Male
11,1,0,CFD-WF-012-002-N.jpg,NaN,1,White,Female,Multiracial,Male
11,1,0,CFD-WF-012-002-N.jpg,0.415752628992777,1,White,Female,Multiracial,Male
11,1,0,CFD-AF-237-223-N.jpg,NaN,1,Asian,Female,Multiracial,Male
11,1,0,CFD-AF-237-223-N.jpg,0.384157476000837,1,Asian,Female,Multiracial,Male
11,1,0,CFD-AF-237-223-N.jpg,0.480469011003152,1,Asian,Female,Multiracial,Male
11,1,0,CFD-WM-020-001-N.jpg,NaN,1,White,Male,Multiracial,Male
11,1,0,CFD-WF-007-001-N.jpg,NaN,1,White,Female,Multiracial,Male
11,1,0,CFD-BM-238-242-N.jpg,NaN,1,Black,Male,Multiracial,Male
12,1,0,CFD-LF-203-066-N.jpg,NaN,1,Latino,Female,Multiracial,Male
12,1,0,CFD-WM-257-161-N.jpg,NaN,1,White,Male,Multiracial,Male
12,1,0,CFD-WF-025-019-N.jpg,NaN,1,White,Female,Multiracial,Male
12,1,0,CFD-WF-025-019-N.jpg,0.466241603993694,1,White,Female,Multiracial,Male
12,1,0,CFD-WF-016-015-N.jpg,NaN,1,White,Female,Multiracial,Male
12,1,0,CFD-WF-016-015-N.jpg,0.778103086995543,1,White,Female,Multiracial,Male
12,1,0,CFD-LM-207-004-N.jpg,NaN,1,Latino,Male,Multiracial,Male
12,1,0,CFD-BF-245-178-N.jpg,NaN,1,Black,Female,Multiracial,Male
12,1,0,CFD-WF-020-002-N.jpg,NaN,1,White,Female,Multiracial,Male
12,1,0,CFD-WF-020-002-N.jpg,0.618307155993534,1,White,Female,Multiracial,Male
13,1,1,CFD-WM-001-014-N_degraded.jpg,NaN,1,White,Male,Multiracial,Male
13,1,1,CFD-LF-217-082-N_degraded.jpg,NaN,1,Latino,Female,Multiracial,Male
13,1,1,CFD-LF-217-082-N_degraded.jpg,0.597347252987674,1,Latino,Female,Multiracial,Male
13,1,1,CFD-LF-217-082-N_degraded.jpg,0.437290583009599,1,Latino,Female,Multiracial,Male
13,1,1,CFD-LF-242-121-N_degraded.jpg,NaN,1,Latino,Female,Multiracial,Male
13,1,1,CFD-LF-229-164-N_degraded.jpg,0.456510034011444,0,Latino,Female,Multiracial,Male
13,1,1,CFD-AM-231-136-N_degraded.jpg,NaN,1,Asian,Male,Multiracial,Male
13,1,1,CFD-BF-216-132-N_degraded.jpg,NaN,1,Black,Female,Multiracial,Male
13,1,1,CFD-BF-216-132-N_degraded.jpg,0.493964818990207,1,Black,Female,Multiracial,Male
13,1,1,CFD-BM-232-213-N_degraded.jpg,NaN,1,Black,Male,Multiracial,Male
14,1,1,CFD-AM-239-147-N_degraded.jpg,NaN,1,Asian,Male,Multiracial,Male
14,1,1,CFD-AM-218-085-N_degraded.jpg,NaN,1,Asian,Male,Multiracial,Male
14,1,1,CFD-AM-218-085-N_degraded.jpg,0.490520854000351,1,Asian,Male,Multiracial,Male
14,1,1,CFD-WM-257-161-N_degraded.jpg,NaN,1,White,Male,Multiracial,Male
14,1,1,CFD-BM-221-198-N_degraded.jpg,NaN,1,Black,Male,Multiracial,Male
14,1,1,CFD-BF-220-161-N_degraded.jpg,NaN,1,Black,Female,Multiracial,Male
14,1,1,CFD-WM-017-002-N_degraded.jpg,NaN,1,White,Male,Multiracial,Male
14,1,1,CFD-BM-217-082-N_degraded.jpg,NaN,1,Black,Male,Multiracial,Male
14,1,1,CFD-BM-217-082-N_degraded.jpg,0.679947308002738,1,Black,Male,Multiracial,Male
14,1,1,CFD-BM-217-082-N_degraded.jpg,0.592151475997525,1,Black,Male,Multiracial,Male
15,1,1,CFD-BM-223-171-N_degraded.jpg,NaN,1,Black,Male,Multiracial,Male
15,1,1,CFD-AF-248-148-N_degraded.jpg,NaN,1,Asian,Female,Multiracial,Male
15,1,1,CFD-AF-248-148-N_degraded.jpg,0.491252785999677,1,Asian,Female,Multiracial,Male
15,1,1,CFD-AF-248-148-N_degraded.jpg,0.514609410995035,1,Asian,Female,Multiracial,Male
15,1,1,CFD-BF-202-109-N_degraded.jpg,NaN,1,Black,Female,Multiracial,Male
15,1,1,CFD-BM-210-148-N_degraded.jpg,NaN,1,Black,Male,Multiracial,Male
15,1,1,CFD-LF-231-260-N_degraded.jpg,NaN,1,Latino,Female,Multiracial,Male
15,1,1,CFD-LF-231-260-N_degraded.jpg,0.524820031001582,1,Latino,Female,Multiracial,Male
15,1,1,CFD-BF-203-184-N_degraded.jpg,NaN,1,Black,Female,Multiracial,Male
15,1,1,CFD-LF-233-277-N_degraded.jpg,NaN,1,Latino,Female,Multiracial,Male
16,1,1,CFD-BF-216-132-N_degraded.jpg,NaN,1,Black,Female,Multiracial,Male
16,1,1,CFD-BF-216-132-N_degraded.jpg,0.456823962987983,1,Black,Female,Multiracial,Male
16,1,1,CFD-BF-225-192-N_degraded.jpg,NaN,1,Black,Female,Multiracial,Male
16,1,1,CFD-BM-216-088-N_degraded.jpg,NaN,1,Black,Male,Multiracial,Male
16,1,1,CFD-LF-201-035-N_degraded.jpg,NaN,1,Latino,Female,Multiracial,Male
16,1,1,CFD-AF-239-171-N_degraded.jpg,NaN,1,Asian,Female,Multiracial,Male
16,1,1,CFD-BF-203-184-N_degraded.jpg,NaN,1,Black,Female,Multiracial,Male
16,1,1,CFD-BF-203-184-N_degraded.jpg,0.4533291280095,1,Black,Female,Multiracial,Male
16,1,1,CFD-WF-016-015-N_degraded.jpg,NaN,1,White,Female,Multiracial,Male
16,1,1,CFD-WF-016-015-N_degraded.jpg,0.458943395002279,1,White,Female,Multiracial,Male
17,1,1,CFD-BM-241-235-N_degraded.jpg,NaN,1,Black,Male,Multiracial,Male
17,1,1,CFD-LF-227-054-N_degraded.jpg,NaN,1,Latino,Female,Multiracial,Male
17,1,1,CFD-LF-227-054-N_degraded.jpg,0.516063107992522,1,Latino,Female,Multiracial,Male
17,1,1,CFD-AM-242-176-N_degraded.jpg,NaN,1,Asian,Male,Multiracial,Male
17,1,1,CFD-AM-242-176-N_degraded.jpg,0.424511218006955,1,Asian,Male,Multiracial,Male
17,1,1,CFD-BM-229-209-N_degraded.jpg,NaN,1,Black,Male,Multiracial,Male
17,1,1,CFD-BM-229-209-N_degraded.jpg,0.411968771004467,1,Black,Male,Multiracial,Male
17,1,1,CFD-WM-203-023-N_degraded.jpg,NaN,1,White,Male,Multiracial,Male
17,1,1,CFD-LF-214-090-N_degraded.jpg,NaN,1,Latino,Female,Multiracial,Male
17,1,1,CFD-LF-204-133-N_degraded.jpg,NaN,1,Latino,Female,Multiracial,Male
18,1,1,CFD-LM-222-239-N_degraded.jpg,NaN,1,Latino,Male,Multiracial,Male
18,1,1,CFD-LM-222-239-N_degraded.jpg,0.492834886012133,1,Latino,Male,Multiracial,Male
18,1,1,CFD-BM-205-001-N_degraded.jpg,NaN,1,Black,Male,Multiracial,Male
18,1,1,CFD-BM-205-001-N_degraded.jpg,0.433447336996323,1,Black,Male,Multiracial,Male
18,1,1,CFD-BF-242-154-N_degraded.jpg,NaN,1,Black,Female,Multiracial,Male
18,1,1,CFD-WM-242-011-N_degraded.jpg,NaN,1,White,Male,Multiracial,Male
18,1,1,CFD-AF-221-147-N_degraded.jpg,0.417313707992435,0,Asian,Female,Multiracial,Male
18,1,1,CFD-WF-246-087-N_degraded.jpg,NaN,1,White,Female,Multiracial,Male
18,1,1,CFD-WF-246-087-N_degraded.jpg,0.536494489992037,1,White,Female,Multiracial,Male
18,1,1,CFD-WM-012-001-N_degraded.jpg,NaN,1,White,Male,Multiracial,Male
19,1,1,CFD-BF-231-202-N_degraded.jpg,NaN,1,Black,Female,Multiracial,Male
19,1,1,CFD-LM-222-239-N_degraded.jpg,NaN,1,Latino,Male,Multiracial,Male
19,1,1,CFD-AM-205-153-N_degraded.jpg,NaN,1,Asian,Male,Multiracial,Male
19,1,1,CFD-LM-235-231-N_degraded.jpg,NaN,1,Latino,Male,Multiracial,Male
19,1,1,CFD-AF-247-278-N_degraded.jpg,NaN,1,Asian,Female,Multiracial,Male
19,1,1,CFD-LM-210-156-N_degraded.jpg,NaN,1,Latino,Male,Multiracial,Male
19,1,1,CFD-LM-210-156-N_degraded.jpg,0.700992199010216,1,Latino,Male,Multiracial,Male
19,1,1,CFD-LM-210-156-N_degraded.jpg,0.453109196008882,1,Latino,Male,Multiracial,Male
19,1,1,CFD-BM-240-207-N_degraded.jpg,NaN,1,Black,Male,Multiracial,Male
19,1,1,CFD-BM-240-207-N_degraded.jpg,0.446375865998561,1,Black,Male,Multiracial,Male
20,1,1,CFD-WM-009-002-N_degraded.jpg,NaN,1,White,Male,Multiracial,Male
20,1,1,CFD-BF-230-189-N_degraded.jpg,NaN,1,Black,Female,Multiracial,Male
20,1,1,CFD-LM-228-188-N_degraded.jpg,NaN,1,Latino,Male,Multiracial,Male
20,1,1,CFD-AM-228-214-N_degraded.jpg,NaN,1,Asian,Male,Multiracial,Male
20,1,1,CFD-AM-228-214-N_degraded.jpg,0.683095521992072,1,Asian,Male,Multiracial,Male
20,1,1,CFD-AF-218-157-N_degraded.jpg,NaN,1,Asian,Female,Multiracial,Male
20,1,1,CFD-AF-218-157-N_degraded.jpg,0.537660330999643,1,Asian,Female,Multiracial,Male
20,1,1,CFD-LM-242-002-N_degraded.jpg,NaN,1,Latino,Male,Multiracial,Male
20,1,1,CFD-BM-243-218-N_degraded.jpg,NaN,1,Black,Male,Multiracial,Male
20,1,1,CFD-BM-243-218-N_degraded.jpg,0.583459311004844,1,Black,Male,Multiracial,Male
21,1,1,CFD-LF-242-121-N_degraded.jpg,NaN,1,Latino,Female,Multiracial,Male
21,1,1,CFD-LF-242-121-N_degraded.jpg,0.514782151993131,1,Latino,Female,Multiracial,Male
21,1,1,CFD-LF-242-121-N_degraded.jpg,0.410843917008606,1,Latino,Female,Multiracial,Male
21,1,1,CFD-WF-209-052-N_degraded.jpg,NaN,1,White,Female,Multiracial,Male
21,1,1,CFD-WF-021-002-N_degraded.jpg,NaN,1,White,Female,Multiracial,Male
21,1,1,CFD-WF-021-002-N_degraded.jpg,0.433001447992865,1,White,Female,Multiracial,Male
21,1,1,CFD-LF-225-164-N_degraded.jpg,NaN,1,Latino,Female,Multiracial,Male
21,1,1,CFD-AM-223-138-N_degraded.jpg,NaN,1,Asian,Male,Multiracial,Male
21,1,1,CFD-AM-243-212-N_degraded.jpg,NaN,1,Asian,Male,Multiracial,Male
21,1,1,CFD-WF-232-161-N_degraded.jpg,NaN,1,White,Female,Multiracial,Male
22,1,1,CFD-WM-242-011-N_degraded.jpg,NaN,1,White,Male,Multiracial,Male
22,1,1,CFD-WM-242-011-N_degraded.jpg,0.562865312007489,1,White,Male,Multiracial,Male
22,1,1,CFD-WM-242-011-N_degraded.jpg,0.563083480999921,1,White,Male,Multiracial,Male
22,1,1,CFD-LM-233-171-N_degraded.jpg,NaN,1,Latino,Male,Multiracial,Male
22,1,1,CFD-BM-245-164-N_degraded.jpg,NaN,1,Black,Male,Multiracial,Male
22,1,1,CFD-BM-234-172-N_degraded.jpg,NaN,1,Black,Male,Multiracial,Male
22,1,1,CFD-BM-234-172-N_degraded.jpg,NaN,0,Black,Male,Multiracial,Male
22,1,1,CFD-AF-230-193-N_degraded.jpg,NaN,1,Asian,Female,Multiracial,Male
22,1,1,CFD-LM-220-329-N_degraded.jpg,NaN,1,Latino,Male,Multiracial,Male
22,1,1,CFD-AF-223-183-N_degraded.jpg,NaN,1,Asian,Female,Multiracial,Male
23,1,1,CFD-WF-027-003-N_degraded.jpg,NaN,1,White,Female,Multiracial,Male
23,1,1,CFD-WF-026-002-N_degraded.jpg,NaN,1,White,Female,Multiracial,Male
23,1,1,CFD-LM-236-163-N_degraded.jpg,NaN,1,Latino,Male,Multiracial,Male
23,1,1,CFD-AM-210-035-N_degraded.jpg,NaN,1,Asian,Male,Multiracial,Male
23,1,1,CFD-LM-212-143-N_degraded.jpg,NaN,1,Latino,Male,Multiracial,Male
23,1,1,CFD-LM-212-143-N_degraded.jpg,NaN,0,Latino,Male,Multiracial,Male
23,1,1,CFD-LM-212-143-N_degraded.jpg,0.528769759010174,1,Latino,Male,Multiracial,Male
23,1,1,CFD-LF-204-133-N_degraded.jpg,NaN,1,Latino,Female,Multiracial,Male
23,1,1,CFD-LF-204-133-N_degraded.jpg,0.58984754300036,1,Latino,Female,Multiracial,Male
23,1,1,CFD-WM-214-026-N_degraded.jpg,NaN,1,White,Male,Multiracial,Male
24,1,1,CFD-BM-221-198-N_degraded.jpg,NaN,1,Black,Male,Multiracial,Male
24,1,1,CFD-BM-221-198-N_degraded.jpg,0.435527649999131,1,Black,Male,Multiracial,Male
24,1,1,CFD-WF-029-002-N_degraded.jpg,NaN,1,White,Female,Multiracial,Male
24,1,1,CFD-AF-238-185-N_degraded.jpg,NaN,1,Asian,Female,Multiracial,Male
24,1,1,CFD-AF-238-185-N_degraded.jpg,0.827814640986617,1,Asian,Female,Multiracial,Male
24,1,1,CFD-AM-204-122-N_degraded.jpg,NaN,1,Asian,Male,Multiracial,Male
24,1,1,CFD-AM-218-085-N_degraded.jpg,NaN,1,Asian,Male,Multiracial,Male
24,1,1,CFD-BM-201-077-N_degraded.jpg,NaN,1,Black,Male,Multiracial,Male
24,1,1,CFD-BM-201-077-N_degraded.jpg,0.519938377998187,1,Black,Male,Multiracial,Male
24,1,1,CFD-WF-027-003-N_degraded.jpg,NaN,1,White,Female,Multiracial,Male
25,2,0,CFD-BF-245-178-N.jpg,NaN,1,Black,Female,Multiracial,Male
25,2,0,CFD-AM-229-224-N.jpg,NaN,1,Asian,Male,Multiracial,Male
25,2,0,CFD-BM-241-235-N.jpg,NaN,1,Black,Male,Multiracial,Male
25,2,0,CFD-AM-229-224-N.jpg,0.70678486500401,1,Asian,Male,Multiracial,Male
25,2,0,CFD-BM-241-235-N.jpg,0.378768946990022,1,Black,Male,Multiracial,Male
25,2,0,CFD-BF-232-187-N.jpg,NaN,1,Black,Female,Multiracial,Male
25,2,0,CFD-WM-029-023-N.jpg,NaN,1,White,Male,Multiracial,Male
25,2,0,CFD-BF-232-187-N.jpg,0.731282980006654,1,Black,Female,Multiracial,Male
25,2,0,CFD-WM-016-001-N.jpg,NaN,1,White,Male,Multiracial,Male
25,2,0,CFD-AF-227-207-N.jpg,NaN,1,Asian,Female,Multiracial,Male
26,2,0,CFD-LF-217-082-N.jpg,NaN,1,Latino,Female,Multiracial,Male
26,2,0,CFD-WM-029-023-N.jpg,NaN,1,White,Male,Multiracial,Male
26,2,0,CFD-BM-214-075-N.jpg,NaN,1,Black,Male,Multiracial,Male
26,2,0,CFD-WM-239-128-N.jpg,NaN,1,White,Male,Multiracial,Male
26,2,0,CFD-BM-214-075-N.jpg,0.677679250002257,1,Black,Male,Multiracial,Male
26,2,0,CFD-BF-217-189-N.jpg,NaN,1,Black,Female,Multiracial,Male
26,2,0,CFD-BM-214-075-N.jpg,0.55709017899062,1,Black,Male,Multiracial,Male
26,2,0,CFD-BM-214-075-N.jpg,0.525182940007653,0,Black,Male,Multiracial,Male
26,2,0,CFD-LM-226-175-N.jpg,NaN,1,Latino,Male,Multiracial,Male
26,2,0,CFD-LM-213-061-N.jpg,NaN,1,Latino,Male,Multiracial,Male
27,2,0,CFD-AM-221-184-N.jpg,NaN,1,Asian,Male,Multiracial,Male
27,2,0,CFD-AM-201-076-N.jpg,NaN,1,Asian,Male,Multiracial,Male
27,2,0,CFD-WM-255-219-N.jpg,NaN,1,White,Male,Multiracial,Male
27,2,0,CFD-AM-201-076-N.jpg,0.616113128999132,1,Asian,Male,Multiracial,Male
27,2,0,CFD-WM-255-219-N.jpg,NaN,0,White,Male,Multiracial,Male
27,2,0,CFD-AM-218-085-N.jpg,NaN,1,Asian,Male,Multiracial,Male
27,2,0,CFD-AF-219-106-N.jpg,NaN,1,Asian,Female,Multiracial,Male
27,2,0,CFD-AM-218-085-N.jpg,0.540131124987965,1,Asian,Male,Multiracial,Male
27,2,0,CFD-LF-219-223-N.jpg,0.700148803996854,0,Latino,Female,Multiracial,Male
27,2,0,CFD-WF-214-122-N.jpg,NaN,1,White,Female,Multiracial,Male
28,2,0,CFD-BM-231-155-N.jpg,NaN,1,Black,Male,Multiracial,Male
28,2,0,CFD-WM-242-011-N.jpg,NaN,1,White,Male,Multiracial,Male
28,2,0,CFD-BM-231-155-N.jpg,0.481491776998155,1,Black,Male,Multiracial,Male
28,2,0,CFD-AM-212-050-N.jpg,NaN,1,Asian,Male,Multiracial,Male
28,2,0,CFD-WF-206-147-N.jpg,NaN,1,White,Female,Multiracial,Male
28,2,0,CFD-AM-212-050-N.jpg,0.464666347994353,1,Asian,Male,Multiracial,Male
28,2,0,CFD-AM-212-050-N.jpg,0.769708068997716,0,Asian,Male,Multiracial,Male
28,2,0,CFD-LM-207-004-N.jpg,NaN,1,Latino,Male,Multiracial,Male
28,2,0,CFD-BF-244-231-N.jpg,NaN,1,Black,Female,Multiracial,Male
28,2,0,CFD-AM-225-102-N.jpg,NaN,1,Asian,Male,Multiracial,Male
29,2,0,CFD-LF-232-199-N.jpg,NaN,1,Latino,Female,Multiracial,Male
29,2,0,CFD-AM-239-147-N.jpg,NaN,1,Asian,Male,Multiracial,Male
29,2,0,CFD-BM-200-046-N.jpg,NaN,1,Black,Male,Multiracial,Male
29,2,0,CFD-AM-239-147-N.jpg,0.523001451001619,1,Asian,Male,Multiracial,Male
29,2,0,CFD-LF-228-125-N.jpg,NaN,1,Latino,Female,Multiracial,Male
29,2,0,CFD-AM-252-114-N.jpg,NaN,1,Asian,Male,Multiracial,Male
29,2,0,CFD-LF-228-125-N.jpg,NaN,0,Latino,Female,Multiracial,Male
29,2,0,CFD-BF-213-188-N.jpg,NaN,1,Black,Female,Multiracial,Male
29,2,0,CFD-LF-228-125-N.jpg,0.468397129996447,1,Latino,Female,Multiracial,Male
29,2,0,CFD-LF-238-154-N.jpg,NaN,1,Latino,Female,Multiracial,Male
30,2,0,CFD-LM-240-013-N.jpg,NaN,1,Latino,Male,Multiracial,Male
30,2,0,CFD-BF-234-167-N.jpg,NaN,1,Black,Female,Multiracial,Male
30,2,0,CFD-LM-240-013-N.jpg,0.730067201991915,1,Latino,Male,Multiracial,Male
30,2,0,CFD-LF-229-164-N.jpg,0.610920929000713,0,Latino,Female,Multiracial,Male
30,2,0,CFD-BF-234-167-N.jpg,NaN,1,Black,Female,Multiracial,Male
30,2,0,CFD-AF-247-278-N.jpg,NaN,1,Asian,Female,Multiracial,Male
30,2,0,CFD-BF-234-167-N.jpg,0.735016567006824,1,Black,Female,Multiracial,Male
30,2,0,CFD-WM-011-002-N.jpg,NaN,1,White,Male,Multiracial,Male
30,2,0,CFD-WF-214-122-N.jpg,NaN,1,White,Female,Multiracial,Male
30,2,0,CFD-WF-022-017-N.jpg,NaN,1,White,Female,Multiracial,Male
31,2,0,CFD-BM-218-132-N.jpg,NaN,1,Black,Male,Multiracial,Male
31,2,0,CFD-BF-222-240-N.jpg,NaN,1,Black,Female,Multiracial,Male
31,2,0,CFD-AM-214-168-N.jpg,NaN,1,Asian,Male,Multiracial,Male
31,2,0,CFD-AM-220-134-N.jpg,NaN,1,Asian,Male,Multiracial,Male
31,2,0,CFD-AM-214-168-N.jpg,NaN,0,Asian,Male,Multiracial,Male
31,2,0,CFD-BM-215-155-N.jpg,NaN,1,Black,Male,Multiracial,Male
31,2,0,CFD-AM-214-168-N.jpg,0.541315723996377,1,Asian,Male,Multiracial,Male
31,2,0,CFD-AM-214-168-N.jpg,0.717439672007458,0,Asian,Male,Multiracial,Male
31,2,0,CFD-AF-242-158-N.jpg,NaN,1,Asian,Female,Multiracial,Male
31,2,0,CFD-LF-231-260-N.jpg,NaN,1,Latino,Female,Multiracial,Male
32,2,0,CFD-LM-207-004-N.jpg,NaN,1,Latino,Male,Multiracial,Male
32,2,0,CFD-AF-220-107-N.jpg,NaN,1,Asian,Female,Multiracial,Male
32,2,0,CFD-AF-233-190-N.jpg,NaN,1,Asian,Female,Multiracial,Male
32,2,0,CFD-BF-225-192-N.jpg,NaN,1,Black,Female,Multiracial,Male
32,2,0,CFD-LF-208-127-N.jpg,NaN,1,Latino,Female,Multiracial,Male
32,2,0,CFD-LM-210-156-N.jpg,NaN,1,Latino,Male,Multiracial,Male
32,2,0,CFD-LF-208-127-N.jpg,0.811855599997216,1,Latino,Female,Multiracial,Male
32,2,0,CFD-LF-208-127-N.jpg,NaN,1,Latino,Female,Multiracial,Male
32,2,0,CFD-LF-208-127-N.jpg,0.528092371008825,1,Latino,Female,Multiracial,Male
32,2,0,CFD-BM-209-088-N.jpg,NaN,1,Black,Male,Multiracial,Male
33,2,0,CFD-LF-211-003-N.jpg,NaN,1,Latino,Female,Multiracial,Male
33,2,0,CFD-BF-227-137-N.jpg,NaN,1,Black,Female,Multiracial,Male
33,2,0,CFD-LF-211-003-N.jpg,0.507849642002839,1,Latino,Female,Multiracial,Male
33,2,0,CFD-BF-227-137-N.jpg,0.547813954006415,1,Black,Female,Multiracial,Male
33,2,0,CFD-AF-246-242-N.jpg,NaN,1,Asian,Female,Multiracial,Male
33,2,0,CFD-BF-227-137-N.jpg,0.435006681989762,1,Black,Female,Multiracial,Male
33,2,0,CFD-LF-238-154-N.jpg,NaN,1,Latino,Female,Multiracial,Male
33,2,0,CFD-WF-009-001-N.jpg,NaN,1,White,Female,Multiracial,Male
33,2,0,CFD-BM-215-155-N.jpg,NaN,1,Black,Male,Multiracial,Male
33,2,0,CFD-AF-241-141-N.jpg,NaN,1,Asian,Female,Multiracial,Male
34,2,0,CFD-BM-224-073-N.jpg,NaN,1,Black,Male,Multiracial,Male
34,2,0,CFD-LF-209-072-N.jpg,NaN,1,Latino,Female,Multiracial,Male
34,2,0,CFD-BM-229-209-N.jpg,0.478396042002714,0,Black,Male,Multiracial,Male
34,2,0,CFD-LF-209-072-N.jpg,0.574683703991468,1,Latino,Female,Multiracial,Male
34,2,0,CFD-WF-214-122-N.jpg,NaN,1,White,Female,Multiracial,Male
34,2,0,CFD-LF-204-133-N.jpg,NaN,1,Latino,Female,Multiracial,Male
34,2,0,CFD-WF-214-122-N.jpg,0.774977487002616,1,White,Female,Multiracial,Male
34,2,0,CFD-WM-024-015-N.jpg,NaN,1,White,Male,Multiracial,Male
34,2,0,CFD-LF-204-133-N.jpg,NaN,1,Latino,Female,Multiracial,Male
34,2,0,CFD-LM-200-045-N.jpg,0.581086453996249,0,Latino,Male,Multiracial,Male
35,2,0,CFD-BF-214-308-N.jpg,NaN,1,Black,Female,Multiracial,Male
35,2,0,CFD-LM-219-295-N.jpg,0.670002498009126,0,Latino,Male,Multiracial,Male
35,2,0,CFD-LM-226-175-N.jpg,NaN,1,Latino,Male,Multiracial,Male
35,2,0,CFD-AF-233-190-N.jpg,NaN,1,Asian,Female,Multiracial,Male
35,2,0,CFD-LM-226-175-N.jpg,0.471069382998394,1,Latino,Male,Multiracial,Male
35,2,0,CFD-BF-051-035-N.jpg,NaN,1,Black,Female,Multiracial,Male
35,2,0,CFD-AM-237-154-N.jpg,NaN,1,Asian,Male,Multiracial,Male
35,2,0,CFD-BF-051-035-N.jpg,0.40695955400588,1,Black,Female,Multiracial,Male
35,2,0,CFD-BF-051-035-N.jpg,NaN,1,Black,Female,Multiracial,Male
35,2,0,CFD-LM-214-165-N.jpg,NaN,1,Latino,Male,Multiracial,Male
36,2,0,CFD-LM-221-216-N.jpg,NaN,1,Latino,Male,Multiracial,Male
36,2,0,CFD-AF-203-077-N.jpg,NaN,1,Asian,Female,Multiracial,Male
36,2,0,CFD-LF-235-219-N.jpg,NaN,1,Latino,Female,Multiracial,Male
36,2,0,CFD-BM-201-077-N.jpg,NaN,1,Black,Male,Multiracial,Male
36,2,0,CFD-LF-235-219-N.jpg,0.670822371990653,1,Latino,Female,Multiracial,Male
36,2,0,CFD-LF-235-219-N.jpg,NaN,1,Latino,Female,Multiracial,Male
36,2,0,CFD-WM-016-001-N.jpg,NaN,1,White,Male,Multiracial,Male
36,2,0,CFD-LF-235-219-N.jpg,0.575053210006445,1,Latino,Female,Multiracial,Male
36,2,0,CFD-AF-200-228-N.jpg,NaN,1,Asian,Female,Multiracial,Male
36,2,0,CFD-BM-229-209-N.jpg,NaN,1,Black,Male,Multiracial,Male
37,2,1,CFD-BF-227-137-N_degraded.jpg,NaN,1,Black,Female,Multiracial,Male
37,2,1,CFD-WF-014-002-N_degraded.jpg,NaN,1,White,Female,Multiracial,Male
37,2,1,CFD-BF-227-137-N_degraded.jpg,0.427934840001399,1,Black,Female,Multiracial,Male
37,2,1,CFD-BM-234-172-N_degraded.jpg,NaN,1,Black,Male,Multiracial,Male
37,2,1,CFD-BF-227-137-N_degraded.jpg,0.503023872006452,1,Black,Female,Multiracial,Male
37,2,1,CFD-AF-220-107-N_degraded.jpg,NaN,1,Asian,Female,Multiracial,Male
37,2,1,CFD-BF-227-137-N_degraded.jpg,0.571335774002364,1,Black,Female,Multiracial,Male
37,2,1,CFD-AM-219-101-N_degraded.jpg,NaN,1,Asian,Male,Multiracial,Male
37,2,1,CFD-LM-234-176-N_degraded.jpg,NaN,1,Latino,Male,Multiracial,Male
37,2,1,CFD-BM-233-285-N_degraded.jpg,NaN,1,Black,Male,Multiracial,Male
38,2,1,CFD-AM-227-184-N_degraded.jpg,NaN,1,Asian,Male,Multiracial,Male
38,2,1,CFD-LM-243-075-N_degraded.jpg,NaN,1,Latino,Male,Multiracial,Male
38,2,1,CFD-AM-227-184-N_degraded.jpg,0.604831243006629,1,Asian,Male,Multiracial,Male
38,2,1,CFD-AM-244-222-N_degraded.jpg,0.628919537004549,0,Asian,Male,Multiracial,Male
38,2,1,CFD-LM-243-075-N_degraded.jpg,NaN,1,Latino,Male,Multiracial,Male
38,2,1,CFD-WM-017-002-N_degraded.jpg,NaN,1,White,Male,Multiracial,Male
38,2,1,CFD-LM-243-075-N_degraded.jpg,0.735822131988243,1,Latino,Male,Multiracial,Male
38,2,1,CFD-BF-205-141-N_degraded.jpg,NaN,1,Black,Female,Multiracial,Male
38,2,1,CFD-WF-002-004-N_degraded.jpg,NaN,1,White,Female,Multiracial,Male
38,2,1,CFD-AM-224-126-N_degraded.jpg,NaN,1,Asian,Male,Multiracial,Male
39,2,1,CFD-LM-224-162-N_degraded.jpg,NaN,1,Latino,Male,Multiracial,Male
39,2,1,CFD-LF-216-121-N_degraded.jpg,NaN,1,Latino,Female,Multiracial,Male
39,2,1,CFD-BM-217-082-N_degraded.jpg,NaN,1,Black,Male,Multiracial,Male
39,2,1,CFD-LF-216-121-N_degraded.jpg,NaN,0,Latino,Female,Multiracial,Male
39,2,1,CFD-LM-208-110-N_degraded.jpg,NaN,1,Latino,Male,Multiracial,Male
39,2,1,CFD-WM-249-239-N_degraded.jpg,NaN,1,White,Male,Multiracial,Male
39,2,1,CFD-LM-208-110-N_degraded.jpg,0.618702891995781,1,Latino,Male,Multiracial,Male
39,2,1,CFD-LM-219-295-N_degraded.jpg,NaN,1,Latino,Male,Multiracial,Male
39,2,1,CFD-WM-249-239-N_degraded.jpg,NaN,1,White,Male,Multiracial,Male
39,2,1,CFD-LM-200-045-N_degraded.jpg,NaN,1,Latino,Male,Multiracial,Male
40,2,1,CFD-AM-243-212-N_degraded.jpg,NaN,1,Asian,Male,Multiracial,Male
40,2,1,CFD-AF-251-093-N_degraded.jpg,NaN,1,Asian,Female,Multiracial,Male
40,2,1,CFD-LF-237-190-N_degraded.jpg,NaN,1,Latino,Female,Multiracial,Male
40,2,1,CFD-AF-251-093-N_degraded.jpg,0.739757984003518,1,Asian,Female,Multiracial,Male
40,2,1,CFD-LF-237-190-N_degraded.jpg,0.523975008007255,1,Latino,Female,Multiracial,Male
40,2,1,CFD-BM-226-276-N_degraded.jpg,NaN,1,Black,Male,Multiracial,Male
40,2,1,CFD-AF-251-093-N_degraded.jpg,NaN,1,Asian,Female,Multiracial,Male
40,2,1,CFD-BM-229-209-N_degraded.jpg,NaN,1,Black,Male,Multiracial,Male
40,2,1,CFD-LM-212-143-N_degraded.jpg,0.738686712997151,0,Latino,Male,Multiracial,Male
40,2,1,CFD-WF-003-003-N_degraded.jpg,NaN,1,White,Female,Multiracial,Male
41,2,1,CFD-WF-204-038-N_degraded.jpg,NaN,1,White,Female,Multiracial,Male
41,2,1,CFD-WF-200-099-N_degraded.jpg,NaN,1,White,Female,Multiracial,Male
41,2,1,CFD-WF-204-038-N_degraded.jpg,NaN,0,White,Female,Multiracial,Male
41,2,1,CFD-BF-201-080-N_degraded.jpg,NaN,1,Black,Female,Multiracial,Male
41,2,1,CFD-WF-200-099-N_degraded.jpg,NaN,1,White,Female,Multiracial,Male
41,2,1,CFD-WF-200-099-N_degraded.jpg,0.65427049799473,0,White,Female,Multiracial,Male
41,2,1,CFD-LF-239-148-N_degraded.jpg,NaN,1,Latino,Female,Multiracial,Male
41,2,1,CFD-LF-227-054-N_degraded.jpg,NaN,1,Latino,Female,Multiracial,Male
41,2,1,CFD-LF-211-003-N_degraded.jpg,0.589971309003886,0,Latino,Female,Multiracial,Male
41,2,1,CFD-WF-208-068-N_degraded.jpg,NaN,1,White,Female,Multiracial,Male
42,2,1,CFD-WM-029-023-N_degraded.jpg,NaN,1,White,Male,Multiracial,Male
42,2,1,CFD-LM-209-111-N_degraded.jpg,NaN,1,Latino,Male,Multiracial,Male
42,2,1,CFD-BM-237-188-N_degraded.jpg,NaN,1,Black,Male,Multiracial,Male
42,2,1,CFD-LM-206-204-N_degraded.jpg,NaN,1,Latino,Male,Multiracial,Male
42,2,1,CFD-LF-213-079-N_degraded.jpg,NaN,1,Latino,Female,Multiracial,Male
42,2,1,CFD-LM-206-204-N_degraded.jpg,NaN,0,Latino,Male,Multiracial,Male
42,2,1,CFD-LM-206-204-N_degraded.jpg,NaN,1,Latino,Male,Multiracial,Male
42,2,1,CFD-LM-207-004-N_degraded.jpg,NaN,1,Latino,Male,Multiracial,Male
42,2,1,CFD-LM-206-204-N_degraded.jpg,0.91419661299733,1,Latino,Male,Multiracial,Male
42,2,1,CFD-LF-212-066-N_degraded.jpg,NaN,1,Latino,Female,Multiracial,Male
43,2,1,CFD-AM-236-090-N_degraded.jpg,NaN,1,Asian,Male,Multiracial,Male
43,2,1,CFD-AF-246-242-N_degraded.jpg,NaN,1,Asian,Female,Multiracial,Male
43,2,1,CFD-AF-248-148-N_degraded.jpg,0.609904381999513,0,Asian,Female,Multiracial,Male
43,2,1,CFD-AF-231-357-N_degraded.jpg,NaN,1,Asian,Female,Multiracial,Male
43,2,1,CFD-BM-209-088-N_degraded.jpg,NaN,1,Black,Male,Multiracial,Male
43,2,1,CFD-AF-231-357-N_degraded.jpg,NaN,0,Asian,Female,Multiracial,Male
43,2,1,CFD-AF-231-357-N_degraded.jpg,NaN,1,Asian,Female,Multiracial,Male
43,2,1,CFD-AF-231-357-N_degraded.jpg,0.850298277000547,1,Asian,Female,Multiracial,Male
43,2,1,CFD-BM-225-154-N_degraded.jpg,NaN,1,Black,Male,Multiracial,Male
43,2,1,CFD-BF-240-179-N_degraded.jpg,NaN,1,Black,Female,Multiracial,Male
44,2,1,CFD-WM-025-002-N_degraded.jpg,NaN,1,White,Male,Multiracial,Male
44,2,1,CFD-WM-233-106-N_degraded.jpg,NaN,1,White,Male,Multiracial,Male
44,2,1,CFD-AM-226-234-N_degraded.jpg,NaN,1,Asian,Male,Multiracial,Male
44,2,1,CFD-AM-206-086-N_degraded.jpg,NaN,1,Asian,Male,Multiracial,Male
44,2,1,CFD-AM-226-234-N_degraded.jpg,NaN,0,Asian,Male,Multiracial,Male
44,2,1,CFD-AM-206-086-N_degraded.jpg,NaN,0,Asian,Male,Multiracial,Male
44,2,1,CFD-LM-225-130-N_degraded.jpg,NaN,1,Latino,Male,Multiracial,Male
44,2,1,CFD-AF-242-158-N_degraded.jpg,NaN,1,Asian,Female,Multiracial,Male
44,2,1,CFD-LM-225-130-N_degraded.jpg,0.534818543004803,1,Latino,Male,Multiracial,Male
44,2,1,CFD-LF-205-100-N_degraded.jpg,NaN,1,Latino,Female,Multiracial,Male
45,2,1,CFD-BM-205-001-N_degraded.jpg,NaN,1,Black,Male,Multiracial,Male
45,2,1,CFD-LM-219-295-N_degraded.jpg,NaN,1,Latino,Male,Multiracial,Male
45,2,1,CFD-BM-205-001-N_degraded.jpg,0.505938525995589,1,Black,Male,Multiracial,Male
45,2,1,CFD-LM-243-075-N_degraded.jpg,NaN,1,Latino,Male,Multiracial,Male
45,2,1,CFD-LM-219-295-N_degraded.jpg,NaN,1,Latino,Male,Multiracial,Male
45,2,1,CFD-LF-205-100-N_degraded.jpg,NaN,1,Latino,Female,Multiracial,Male
45,2,1,CFD-BF-234-167-N_degraded.jpg,NaN,1,Black,Female,Multiracial,Male
45,2,1,CFD-LF-205-100-N_degraded.jpg,0.648275372004719,1,Latino,Female,Multiracial,Male
45,2,1,CFD-AM-210-035-N_degraded.jpg,NaN,1,Asian,Male,Multiracial,Male
45,2,1,CFD-LF-227-054-N_degraded.jpg,NaN,1,Latino,Female,Multiracial,Male
46,2,1,CFD-AM-245-111-N_degraded.jpg,NaN,1,Asian,Male,Multiracial,Male
46,2,1,CFD-BM-224-073-N_degraded.jpg,NaN,1,Black,Male,Multiracial,Male
46,2,1,CFD-AM-245-111-N_degraded.jpg,NaN,0,Asian,Male,Multiracial,Male
46,2,1,CFD-LM-224-162-N_degraded.jpg,NaN,1,Latino,Male,Multiracial,Male
46,2,1,CFD-BF-239-180-N_degraded.jpg,NaN,1,Black,Female,Multiracial,Male
46,2,1,CFD-LM-224-162-N_degraded.jpg,NaN,0,Latino,Male,Multiracial,Male
46,2,1,CFD-LM-240-013-N_degraded.jpg,NaN,1,Latino,Male,Multiracial,Male
46,2,1,CFD-BF-239-180-N_degraded.jpg,NaN,1,Black,Female,Multiracial,Male
46,2,1,CFD-BM-204-003-N_degraded.jpg,NaN,1,Black,Male,Multiracial,Male
46,2,1,CFD-LM-219-295-N_degraded.jpg,NaN,1,Latino,Male,Multiracial,Male
47,2,1,CFD-BF-230-189-N_degraded.jpg,NaN,1,Black,Female,Multiracial,Male
47,2,1,CFD-BM-217-082-N_degraded.jpg,NaN,1,Black,Male,Multiracial,Male
47,2,1,CFD-BF-206-143-N_degraded.jpg,NaN,1,Black,Female,Multiracial,Male
47,2,1,CFD-BM-217-082-N_degraded.jpg,0.6883605930052,1,Black,Male,Multiracial,Male
47,2,1,CFD-BF-206-143-N_degraded.jpg,0.936577685002703,1,Black,Female,Multiracial,Male
47,2,1,CFD-AM-228-214-N_degraded.jpg,NaN,1,Asian,Male,Multiracial,Male
47,2,1,CFD-WF-025-019-N_degraded.jpg,NaN,1,White,Female,Multiracial,Male
47,2,1,CFD-AM-228-214-N_degraded.jpg,0.587591224000789,1,Asian,Male,Multiracial,Male
47,2,1,CFD-WM-256-138-N_degraded.jpg,NaN,1,White,Male,Multiracial,Male
47,2,1,CFD-WF-246-087-N_degraded.jpg,NaN,1,White,Female,Multiracial,Male
48,2,1,CFD-WF-024-003-N_degraded.jpg,NaN,1,White,Female,Multiracial,Male
48,2,1,CFD-WF-002-004-N_degraded.jpg,NaN,1,White,Female,Multiracial,Male
48,2,1,CFD-BM-045-004-N_degraded.jpg,NaN,1,Black,Male,Multiracial,Male
48,2,1,CFD-AM-235-241-N_degraded.jpg,0.788639278005576,0,Asian,Male,Multiracial,Male
48,2,1,CFD-BM-045-004-N_degraded.jpg,0.547827567002969,1,Black,Male,Multiracial,Male
48,2,1,CFD-WF-014-002-N_degraded.jpg,NaN,1,White,Female,Multiracial,Male
48,2,1,CFD-AM-235-241-N_degraded.jpg,NaN,1,Asian,Male,Multiracial,Male
48,2,1,CFD-WF-014-002-N_degraded.jpg,0.573036941001192,1,White,Female,Multiracial,Male
48,2,1,CFD-WM-028-003-N_degraded.jpg,NaN,1,White,Male,Multiracial,Male
48,2,1,CFD-BF-226-119-N_degraded.jpg,NaN,1,Black,Female,Multiracial,Male
49,0,0,CFD-WF-202-056-N.jpg,NaN,1,White,Female,Multiracial,Male
49,0,0,CFD-AM-225-102-N.jpg,NaN,1,Asian,Male,Multiracial,Male
49,0,0,CFD-LM-222-239-N.jpg,0.443370218999917,1,Latino,Male,Multiracial,Male
49,0,0,CFD-BM-243-218-N.jpg,NaN,1,Black,Male,Multiracial,Male
49,0,0,CFD-BM-242-233-N.jpg,NaN,1,Black,Male,Multiracial,Male
49,0,0,CFD-LF-217-082-N.jpg,NaN,1,Latino,Female,Multiracial,Male
49,0,0,CFD-AM-209-048-N.jpg,NaN,1,Asian,Male,Multiracial,Male
49,0,0,CFD-LM-222-239-N.jpg,0.79817870700208,1,Latino,Male,Multiracial,Male
49,0,0,CFD-AF-228-173-N.jpg,NaN,1,Asian,Female,Multiracial,Male
49,0,0,CFD-LM-222-239-N.jpg,0.510671605006792,1,Latino,Male,Multiracial,Male
50,0,0,CFD-BM-243-218-N.jpg,NaN,1,Black,Male,Multiracial,Male
50,0,0,CFD-WF-019-005-N.jpg,NaN,1,White,Female,Multiracial,Male
50,0,0,CFD-BM-238-242-N.jpg,NaN,1,Black,Male,Multiracial,Male
50,0,0,CFD-WM-006-002-N.jpg,NaN,1,White,Male,Multiracial,Male
50,0,0,CFD-LF-223-064-N.jpg,NaN,1,Latino,Female,Multiracial,Male
50,0,0,CFD-AM-239-147-N.jpg,NaN,1,Asian,Male,Multiracial,Male
50,0,0,CFD-WF-031-027-N.jpg,NaN,1,White,Female,Multiracial,Male
50,0,0,CFD-LF-209-072-N.jpg,0.536730196996359,1,Latino,Female,Multiracial,Male
50,0,0,CFD-LF-209-072-N.jpg,0.449058521000552,1,Latino,Female,Multiracial,Male
50,0,0,CFD-LF-209-072-N.jpg,0.40949498199916,1,Latino,Female,Multiracial,Male
51,0,0,CFD-AF-214-139-N.jpg,NaN,1,Asian,Female,Multiracial,Male
51,0,0,CFD-BM-236-248-N.jpg,NaN,1,Black,Male,Multiracial,Male
51,0,0,CFD-WF-008-002-N.jpg,0.617232147997129,1,White,Female,Multiracial,Male
51,0,0,CFD-LF-228-125-N.jpg,NaN,1,Latino,Female,Multiracial,Male
51,0,0,CFD-WF-206-147-N.jpg,NaN,1,White,Female,Multiracial,Male
51,0,0,CFD-WF-008-002-N.jpg,0.53187439199246,1,White,Female,Multiracial,Male
51,0,0,CFD-WM-022-001-N.jpg,NaN,1,White,Male,Multiracial,Male
51,0,0,CFD-AF-251-093-N.jpg,NaN,1,Asian,Female,Multiracial,Male
51,0,0,CFD-LF-227-054-N.jpg,NaN,1,Latino,Female,Multiracial,Male
51,0,0,CFD-WF-008-002-N.jpg,0.470185454003513,1,White,Female,Multiracial,Male
52,0,0,CFD-AF-223-183-N.jpg,NaN,1,Asian,Female,Multiracial,Male
52,0,0,CFD-AF-253-130-N.jpg,0.472126371998456,1,Asian,Female,Multiracial,Male
52,0,0,CFD-AF-253-130-N.jpg,0.416144053000608,1,Asian,Female,Multiracial,Male
52,0,0,CFD-AM-225-102-N.jpg,NaN,1,Asian,Male,Multiracial,Male
52,0,0,CFD-LM-200-045-N.jpg,NaN,1,Latino,Male,Multiracial,Male
52,0,0,CFD-AM-231-136-N.jpg,NaN,1,Asian,Male,Multiracial,Male
52,0,0,CFD-AM-209-048-N.jpg,NaN,1,Asian,Male,Multiracial,Male
52,0,0,CFD-AF-253-130-N.jpg,0.570958873999189,1,Asian,Female,Multiracial,Male
52,0,0,CFD-BF-209-172-N.jpg,NaN,1,Black,Female,Multiracial,Male
52,0,0,CFD-LF-210-220-N.jpg,NaN,1,Latino,Female,Multiracial,Male
53,0,0,CFD-AM-231-136-N.jpg,NaN,1,Asian,Male,Multiracial,Male
53,0,0,CFD-AM-207-108-N.jpg,NaN,1,Asian,Male,Multiracial,Male
53,0,0,CFD-LF-223-064-N.jpg,0.588540747994557,1,Latino,Female,Multiracial,Male
53,0,0,CFD-BM-214-075-N.jpg,NaN,1,Black,Male,Multiracial,Male
53,0,0,CFD-LM-207-004-N.jpg,NaN,1,Latino,Male,Multiracial,Male
53,0,0,CFD-AF-238-185-N.jpg,NaN,1,Asian,Female,Multiracial,Male
53,0,0,CFD-AF-246-242-N.jpg,NaN,1,Asian,Female,Multiracial,Male
53,0,0,CFD-LF-223-064-N.jpg,0.577860132005299,1,Latino,Female,Multiracial,Male
53,0,0,CFD-WM-028-003-N.jpg,NaN,1,White,Male,Multiracial,Male
53,0,0,CFD-LF-223-064-N.jpg,0.626703836998786,1,Latino,Female,Multiracial,Male
54,0,0,CFD-AM-204-122-N.jpg,NaN,1,Asian,Male,Multiracial,Male
54,0,0,CFD-WF-014-002-N.jpg,NaN,1,White,Female,Multiracial,Male
54,0,0,CFD-WF-209-052-N.jpg,NaN,1,White,Female,Multiracial,Male
54,0,0,CFD-LF-203-066-N.jpg,NaN,1,Latino,Female,Multiracial,Male
54,0,0,CFD-AM-220-134-N.jpg,NaN,1,Asian,Male,Multiracial,Male
54,0,0,CFD-WM-247-084-N.jpg,0.658500434990856,1,White,Male,Multiracial,Male
54,0,0,CFD-BM-205-001-N.jpg,NaN,1,Black,Male,Multiracial,Male
54,0,0,CFD-AF-218-157-N.jpg,NaN,1,Asian,Female,Multiracial,Male
54,0,0,CFD-WM-247-084-N.jpg,0.566274687007535,1,White,Male,Multiracial,Male
54,0,0,CFD-WM-247-084-N.jpg,0.599078765997547,1,White,Male,Multiracial,Male
55,0,0,CFD-BF-236-177-N.jpg,0.446457477999502,1,Black,Female,Multiracial,Male
55,0,0,CFD-LM-213-061-N.jpg,NaN,1,Latino,Male,Multiracial,Male
55,0,0,CFD-BF-228-212-N.jpg,NaN,1,Black,Female,Multiracial,Male
55,0,0,CFD-WM-004-010-N.jpg,NaN,1,White,Male,Multiracial,Male
55,0,0,CFD-BM-226-276-N.jpg,NaN,1,Black,Male,Multiracial,Male
55,0,0,CFD-AF-228-173-N.jpg,NaN,1,Asian,Female,Multiracial,Male
55,0,0,CFD-AF-250-200-N.jpg,NaN,1,Asian,Female,Multiracial,Male
55,0,0,CFD-BF-236-177-N.jpg,0.620594927007915,1,Black,Female,Multiracial,Male
55,0,0,CFD-BF-236-177-N.jpg,0.437489338000887,1,Black,Female,Multiracial,Male
55,0,0,CFD-AM-220-134-N.jpg,NaN,1,Asian,Male,Multiracial,Male
56,0,0,CFD-LF-206-078-N.jpg,NaN,1,Latino,Female,Multiracial,Male
56,0,0,CFD-WM-006-002-N.jpg,NaN,1,White,Male,Multiracial,Male
56,0,0,CFD-AM-221-184-N.jpg,0.592074447995401,1,Asian,Male,Multiracial,Male
56,0,0,CFD-BF-240-179-N.jpg,NaN,1,Black,Female,Multiracial,Male
56,0,0,CFD-AM-231-136-N.jpg,NaN,1,Asian,Male,Multiracial,Male
56,0,0,CFD-AM-221-184-N.jpg,0.560552597002243,1,Asian,Male,Multiracial,Male
56,0,0,CFD-AM-221-184-N.jpg,0.607604602992069,1,Asian,Male,Multiracial,Male
56,0,0,CFD-AM-219-101-N.jpg,NaN,1,Asian,Male,Multiracial,Male
56,0,0,CFD-BF-230-189-N.jpg,NaN,1,Black,Female,Multiracial,Male
56,0,0,CFD-AF-229-160-N.jpg,NaN,1,Asian,Female,Multiracial,Male
57,0,0,CFD-AM-205-153-N.jpg,0.802782115002628,1,Asian,Male,Multiracial,Male
57,0,0,CFD-WM-009-002-N.jpg,NaN,1,White,Male,Multiracial,Male
57,0,0,CFD-AF-228-173-N.jpg,NaN,1,Asian,Female,Multiracial,Male
57,0,0,CFD-AM-234-355-N.jpg,NaN,1,Asian,Male,Multiracial,Male
57,0,0,CFD-AM-205-153-N.jpg,0.651070124004036,1,Asian,Male,Multiracial,Male
57,0,0,CFD-AF-234-208-N.jpg,NaN,1,Asian,Female,Multiracial,Male
57,0,0,CFD-AF-211-066-N.jpg,NaN,1,Asian,Female,Multiracial,Male
57,0,0,CFD-AM-244-222-N.jpg,NaN,1,Asian,Male,Multiracial,Male
57,0,0,CFD-AM-205-153-N.jpg,0.646557830012171,1,Asian,Male,Multiracial,Male
57,0,0,CFD-BM-222-173-N.jpg,NaN,1,Black,Male,Multiracial,Male
58,0,0,CFD-WF-006-002-N.jpg,NaN,1,White,Female,Multiracial,Male
58,0,0,CFD-BF-217-189-N.jpg,0.539293481007917,1,Black,Female,Multiracial,Male
58,0,0,CFD-LF-200-058-N.jpg,NaN,1,Latino,Female,Multiracial,Male
58,0,0,CFD-AF-240-206-N.jpg,NaN,1,Asian,Female,Multiracial,Male
58,0,0,CFD-LF-244-096-N.jpg,NaN,1,Latino,Female,Multiracial,Male
58,0,0,CFD-AF-225-141-N.jpg,NaN,1,Asian,Female,Multiracial,Male
58,0,0,CFD-BF-217-189-N.jpg,0.786541251989547,1,Black,Female,Multiracial,Male
58,0,0,CFD-AF-237-223-N.jpg,NaN,1,Asian,Female,Multiracial,Male
58,0,0,CFD-WF-002-004-N.jpg,NaN,1,White,Female,Multiracial,Male
58,0,0,CFD-BF-217-189-N.jpg,0.732648983001127,1,Black,Female,Multiracial,Male
59,0,0,CFD-LF-208-127-N.jpg,NaN,1,Latino,Female,Multiracial,Male
59,0,0,CFD-LM-223-175-N.jpg,NaN,1,Latino,Male,Multiracial,Male
59,0,0,CFD-LF-216-121-N.jpg,NaN,1,Latino,Female,Multiracial,Male
59,0,0,CFD-LM-230-202-N.jpg,NaN,1,Latino,Male,Multiracial,Male
59,0,0,CFD-LF-237-190-N.jpg,0.58093441100209,1,Latino,Female,Multiracial,Male
59,0,0,CFD-LF-237-190-N.jpg,0.724404717999278,1,Latino,Female,Multiracial,Male
59,0,0,CFD-LF-237-190-N.jpg,0.524163011010387,1,Latino,Female,Multiracial,Male
59,0,0,CFD-WF-011-002-N.jpg,NaN,1,White,Female,Multiracial,Male
59,0,0,CFD-BF-212-315-N.jpg,NaN,1,Black,Female,Multiracial,Male
59,0,0,CFD-LM-239-075-N.jpg,NaN,1,Latino,Male,Multiracial,Male
60,0,0,CFD-AF-227-207-N.jpg,NaN,1,Asian,Female,Multiracial,Male
60,0,0,CFD-AF-234-208-N.jpg,NaN,1,Asian,Female,Multiracial,Male
60,0,0,CFD-WF-019-005-N.jpg,NaN,1,White,Female,Multiracial,Male
60,0,0,CFD-WF-015-006-N.jpg,NaN,1,White,Female,Multiracial,Male
60,0,0,CFD-WM-009-002-N.jpg,NaN,0,White,Male,Multiracial,Male
60,0,0,CFD-AF-240-206-N.jpg,NaN,1,Asian,Female,Multiracial,Male
60,0,0,CFD-WM-022-001-N.jpg,NaN,1,White,Male,Multiracial,Male
60,0,0,CFD-WM-009-002-N.jpg,0.694243521997123,1,White,Male,Multiracial,Male
60,0,0,CFD-LM-240-013-N.jpg,NaN,1,Latino,Male,Multiracial,Male
60,0,0,CFD-WM-009-002-N.jpg,0.595875426006387,1,White,Male,Multiracial,Male
61,0,1,CFD-AF-239-171-N_degraded.jpg,NaN,1,Asian,Female,Multiracial,Male
61,0,1,CFD-BF-241-222-N_degraded.jpg,NaN,1,Black,Female,Multiracial,Male
61,0,1,CFD-WF-209-052-N_degraded.jpg,NaN,1,White,Female,Multiracial,Male
61,0,1,CFD-WM-230-131-N_degraded.jpg,NaN,1,White,Male,Multiracial,Male
61,0,1,CFD-LM-244-068-N_degraded.jpg,0.630231988994638,1,Latino,Male,Multiracial,Male
61,0,1,CFD-LM-244-068-N_degraded.jpg,0.421400683990214,1,Latino,Male,Multiracial,Male
61,0,1,CFD-AM-242-176-N_degraded.jpg,NaN,1,Asian,Male,Multiracial,Male
61,0,1,CFD-LM-244-068-N_degraded.jpg,0.525181243996485,1,Latino,Male,Multiracial,Male
61,0,1,CFD-BF-240-179-N_degraded.jpg,NaN,1,Black,Female,Multiracial,Male
61,0,1,CFD-LM-241-125-N_degraded.jpg,NaN,1,Latino,Male,Multiracial,Male
62,0,1,CFD-LM-208-110-N_degraded.jpg,NaN,1,Latino,Male,Multiracial,Male
62,0,1,CFD-AM-211-052-N_degraded.jpg,NaN,1,Asian,Male,Multiracial,Male
62,0,1,CFD-WF-011-002-N_degraded.jpg,NaN,1,White,Female,Multiracial,Male
62,0,1,CFD-BF-214-308-N_degraded.jpg,NaN,1,Black,Female,Multiracial,Male
62,0,1,CFD-BM-239-136-N_degraded.jpg,NaN,1,Black,Male,Multiracial,Male
62,0,1,CFD-AM-240-191-N_degraded.jpg,0.907461534996401,1,Asian,Male,Multiracial,Male
62,0,1,CFD-AM-240-191-N_degraded.jpg,0.500109037006041,1,Asian,Male,Multiracial,Male
62,0,1,CFD-AM-241-287-N_degraded.jpg,NaN,1,Asian,Male,Multiracial,Male
62,0,1,CFD-AF-244-168-N_degraded.jpg,NaN,1,Asian,Female,Multiracial,Male
62,0,1,CFD-AM-240-191-N_degraded.jpg,0.566147277000709,1,Asian,Male,Multiracial,Male
63,0,1,CFD-WM-021-001-N_degraded.jpg,NaN,1,White,Male,Multiracial,Male
63,0,1,CFD-AF-248-148-N_degraded.jpg,NaN,1,Asian,Female,Multiracial,Male
63,0,1,CFD-LM-212-143-N_degraded.jpg,NaN,1,Latino,Male,Multiracial,Male
63,0,1,CFD-BF-203-184-N_degraded.jpg,NaN,1,Black,Female,Multiracial,Male
63,0,1,CFD-LM-228-188-N_degraded.jpg,0.636113464002847,1,Latino,Male,Multiracial,Male
63,0,1,CFD-WF-003-003-N_degraded.jpg,NaN,1,White,Female,Multiracial,Male
63,0,1,CFD-LM-228-188-N_degraded.jpg,0.581107810998219,1,Latino,Male,Multiracial,Male
63,0,1,CFD-AM-224-126-N_degraded.jpg,NaN,1,Asian,Male,Multiracial,Male
63,0,1,CFD-BM-219-141-N_degraded.jpg,NaN,1,Black,Male,Multiracial,Male
63,0,1,CFD-LM-228-188-N_degraded.jpg,0.573148284005583,1,Latino,Male,Multiracial,Male
64,0,1,CFD-AF-230-193-N_degraded.jpg,0.510392290991149,1,Asian,Female,Multiracial,Male
64,0,1,CFD-AF-253-130-N_degraded.jpg,NaN,1,Asian,Female,Multiracial,Male
64,0,1,CFD-AF-241-141-N_degraded.jpg,NaN,1,Asian,Female,Multiracial,Male
64,0,1,CFD-AF-203-077-N_degraded.jpg,NaN,1,Asian,Female,Multiracial,Male
64,0,1,CFD-AF-230-193-N_degraded.jpg,NaN,0,Asian,Female,Multiracial,Male
64,0,1,CFD-AF-230-193-N_degraded.jpg,NaN,0,Asian,Female,Multiracial,Male
64,0,1,CFD-LM-226-175-N_degraded.jpg,NaN,1,Latino,Male,Multiracial,Male
64,0,1,CFD-AM-203-086-N_degraded.jpg,NaN,1,Asian,Male,Multiracial,Male
64,0,1,CFD-BF-223-250-N_degraded.jpg,NaN,1,Black,Female,Multiracial,Male
64,0,1,CFD-WF-008-002-N_degraded.jpg,NaN,1,White,Female,Multiracial,Male
65,0,1,CFD-BF-222-240-N_degraded.jpg,NaN,1,Black,Female,Multiracial,Male
65,0,1,CFD-AM-217-085-N_degraded.jpg,0.572469966995413,1,Asian,Male,Multiracial,Male
65,0,1,CFD-AM-228-214-N_degraded.jpg,NaN,1,Asian,Male,Multiracial,Male
65,0,1,CFD-BF-223-250-N_degraded.jpg,NaN,1,Black,Female,Multiracial,Male
65,0,1,CFD-LM-226-175-N_degraded.jpg,NaN,1,Latino,Male,Multiracial,Male
65,0,1,CFD-AM-217-085-N_degraded.jpg,0.69725042200298,1,Asian,Male,Multiracial,Male
65,0,1,CFD-WM-002-009-N_degraded.jpg,NaN,1,White,Male,Multiracial,Male
65,0,1,CFD-AM-217-085-N_degraded.jpg,0.448757068996201,1,Asian,Male,Multiracial,Male
65,0,1,CFD-AM-252-114-N_degraded.jpg,NaN,1,Asian,Male,Multiracial,Male
65,0,1,CFD-AM-235-241-N_degraded.jpg,NaN,1,Asian,Male,Multiracial,Male
66,0,1,CFD-BF-202-109-N_degraded.jpg,NaN,1,Black,Female,Multiracial,Male
66,0,1,CFD-AF-235-170-N_degraded.jpg,NaN,1,Asian,Female,Multiracial,Male
66,0,1,CFD-WM-248-036-N_degraded.jpg,0.582499451003969,1,White,Male,Multiracial,Male
66,0,1,CFD-WM-230-131-N_degraded.jpg,NaN,1,White,Male,Multiracial,Male
66,0,1,CFD-BM-205-001-N_degraded.jpg,NaN,1,Black,Male,Multiracial,Male
66,0,1,CFD-WM-248-036-N_degraded.jpg,0.769604809000157,1,White,Male,Multiracial,Male
66,0,1,CFD-AM-218-085-N_degraded.jpg,NaN,1,Asian,Male,Multiracial,Male
66,0,1,CFD-WM-248-036-N_degraded.jpg,0.461773499002447,1,White,Male,Multiracial,Male
66,0,1,CFD-LM-220-329-N_degraded.jpg,NaN,1,Latino,Male,Multiracial,Male
66,0,1,CFD-BM-206-114-N_degraded.jpg,NaN,1,Black,Male,Multiracial,Male
67,0,1,CFD-BM-226-276-N_degraded.jpg,NaN,1,Black,Male,Multiracial,Male
67,0,1,CFD-BF-216-132-N_degraded.jpg,NaN,1,Black,Female,Multiracial,Male
67,0,1,CFD-BM-214-075-N_degraded.jpg,NaN,1,Black,Male,Multiracial,Male
67,0,1,CFD-BF-237-172-N_degraded.jpg,NaN,1,Black,Female,Multiracial,Male
67,0,1,CFD-LF-233-277-N_degraded.jpg,NaN,1,Latino,Female,Multiracial,Male
67,0,1,CFD-BF-230-189-N_degraded.jpg,NaN,1,Black,Female,Multiracial,Male
67,0,1,CFD-LF-211-003-N_degraded.jpg,0.686944376997417,1,Latino,Female,Multiracial,Male
67,0,1,CFD-LF-211-003-N_degraded.jpg,0.423810970998602,1,Latino,Female,Multiracial,Male
67,0,1,CFD-WF-031-027-N_degraded.jpg,NaN,1,White,Female,Multiracial,Male
67,0,1,CFD-LF-211-003-N_degraded.jpg,0.715488629997708,1,Latino,Female,Multiracial,Male
68,0,1,CFD-WF-003-003-N_degraded.jpg,NaN,1,White,Female,Multiracial,Male
68,0,1,CFD-LM-241-125-N_degraded.jpg,NaN,1,Latino,Male,Multiracial,Male
68,0,1,CFD-LM-240-013-N_degraded.jpg,NaN,1,Latino,Male,Multiracial,Male
68,0,1,CFD-AM-244-222-N_degraded.jpg,NaN,1,Asian,Male,Multiracial,Male
68,0,1,CFD-BM-230-232-N_degraded.jpg,NaN,1,Black,Male,Multiracial,Male
68,0,1,CFD-WM-026-001-N_degraded.jpg,0.552068320990657,1,White,Male,Multiracial,Male
68,0,1,CFD-AF-246-242-N_degraded.jpg,NaN,1,Asian,Female,Multiracial,Male
68,0,1,CFD-WM-026-001-N_degraded.jpg,0.515201855989289,1,White,Male,Multiracial,Male
68,0,1,CFD-WF-001-003-N_degraded.jpg,NaN,1,White,Female,Multiracial,Male
68,0,1,CFD-WM-026-001-N_degraded.jpg,0.524663019998115,1,White,Male,Multiracial,Male
69,0,1,CFD-LM-230-202-N_degraded.jpg,0.880643209995469,1,Latino,Male,Multiracial,Male
69,0,1,CFD-LM-230-202-N_degraded.jpg,0.400611441000365,1,Latino,Male,Multiracial,Male
69,0,1,CFD-WF-019-005-N_degraded.jpg,NaN,1,White,Female,Multiracial,Male
69,0,1,CFD-LM-242-002-N_degraded.jpg,NaN,1,Latino,Male,Multiracial,Male
69,0,1,CFD-WM-034-030-N_degraded.jpg,NaN,1,White,Male,Multiracial,Male
69,0,1,CFD-LM-219-295-N_degraded.jpg,NaN,1,Latino,Male,Multiracial,Male
69,0,1,CFD-AF-220-107-N_degraded.jpg,NaN,1,Asian,Female,Multiracial,Male
69,0,1,CFD-AM-212-050-N_degraded.jpg,NaN,1,Asian,Male,Multiracial,Male
69,0,1,CFD-LF-213-079-N_degraded.jpg,NaN,1,Latino,Female,Multiracial,Male
69,0,1,CFD-LM-230-202-N_degraded.jpg,NaN,0,Latino,Male,Multiracial,Male
70,0,1,CFD-AM-215-120-N_degraded.jpg,NaN,1,Asian,Male,Multiracial,Male
70,0,1,CFD-WM-024-015-N_degraded.jpg,NaN,1,White,Male,Multiracial,Male
70,0,1,CFD-LM-213-061-N_degraded.jpg,NaN,0,Latino,Male,Multiracial,Male
70,0,1,CFD-BF-051-035-N_degraded.jpg,NaN,1,Black,Female,Multiracial,Male
70,0,1,CFD-BM-221-198-N_degraded.jpg,NaN,1,Black,Male,Multiracial,Male
70,0,1,CFD-WF-015-006-N_degraded.jpg,NaN,1,White,Female,Multiracial,Male
70,0,1,CFD-LF-224-176-N_degraded.jpg,NaN,1,Latino,Female,Multiracial,Male
70,0,1,CFD-LM-213-061-N_degraded.jpg,0.565083210007288,1,Latino,Male,Multiracial,Male
70,0,1,CFD-WM-018-002-N_degraded.jpg,NaN,1,White,Male,Multiracial,Male
70,0,1,CFD-LM-213-061-N_degraded.jpg,0.666606338010752,1,Latino,Male,Multiracial,Male
71,0,1,CFD-BF-225-192-N_degraded.jpg,0.499370373989223,1,Black,Female,Multiracial,Male
71,0,1,CFD-BF-225-192-N_degraded.jpg,0.442976341000758,1,Black,Female,Multiracial,Male
71,0,1,CFD-LM-200-045-N_degraded.jpg,NaN,1,Latino,Male,Multiracial,Male
71,0,1,CFD-WF-205-006-N_degraded.jpg,NaN,1,White,Female,Multiracial,Male
71,0,1,CFD-BF-225-192-N_degraded.jpg,0.756927698996151,1,Black,Female,Multiracial,Male
71,0,1,CFD-BM-222-173-N_degraded.jpg,NaN,1,Black,Male,Multiracial,Male
71,0,1,CFD-WF-015-006-N_degraded.jpg,NaN,1,White,Female,Multiracial,Male
71,0,1,CFD-WM-026-001-N_degraded.jpg,NaN,1,White,Male,Multiracial,Male
71,0,1,CFD-WF-025-019-N_degraded.jpg,NaN,1,White,Female,Multiracial,Male
71,0,1,CFD-LF-200-058-N_degraded.jpg,NaN,1,Latino,Female,Multiracial,Male
72,0,1,CFD-AF-217-155-N_degraded.jpg,0.437541867999244,1,Asian,Female,Multiracial,Male
72,0,1,CFD-WM-249-239-N_degraded.jpg,NaN,1,White,Male,Multiracial,Male
72,0,1,CFD-AF-217-155-N_degraded.jpg,0.437383696989855,1,Asian,Female,Multiracial,Male
72,0,1,CFD-AF-217-155-N_degraded.jpg,0.573225083993748,1,Asian,Female,Multiracial,Male
72,0,1,CFD-BF-242-154-N_degraded.jpg,NaN,1,Black,Female,Multiracial,Male
72,0,1,CFD-AM-223-138-N_degraded.jpg,NaN,1,Asian,Male,Multiracial,Male
72,0,1,CFD-WF-031-027-N_degraded.jpg,NaN,1,White,Female,Multiracial,Male
72,0,1,CFD-LF-221-002-N_degraded.jpg,NaN,1,Latino,Female,Multiracial,Male
72,0,1,CFD-LM-237-264-N_degraded.jpg,NaN,1,Latino,Male,Multiracial,Male
72,0,1,CFD-BM-216-088-N_degraded.jpg,NaN,1,Black,Male,Multiracial,Male
