Trial,nBack,Degradation,Image,RT,Accuracy,Race,Gender,SubRace,SubGender
1,0,0,CFD-BM-232-213-N.jpg,NaN,1,Black,Male,Black,Female
1,0,0,CFD-AM-239-147-N.jpg,NaN,1,Asian,Male,Black,Female
1,0,0,CFD-LF-243-175-N.jpg,NaN,1,Latino,Female,Black,Female
1,0,0,CFD-AF-227-207-N.jpg,NaN,1,Asian,Female,Black,Female
1,0,0,CFD-WM-242-011-N.jpg,0.57459606800694,1,White,Male,Black,Female
1,0,0,CFD-LF-224-176-N.jpg,NaN,1,Latino,Female,Black,Female
1,0,0,CFD-BF-226-119-N.jpg,NaN,1,Black,Female,Black,Female
1,0,0,CFD-WM-242-011-N.jpg,0.694738435006002,1,White,Male,Black,Female
1,0,0,CFD-WF-205-006-N.jpg,NaN,1,White,Female,Black,Female
1,0,0,CFD-WM-242-011-N.jpg,0.733055610995507,1,White,Male,Black,Female
2,0,0,CFD-WF-214-122-N.jpg,NaN,1,White,Female,Black,Female
2,0,0,CFD-WF-011-002-N.jpg,NaN,1,White,Female,Black,Female
2,0,0,CFD-BM-229-209-N.jpg,NaN,1,Black,Male,Black,Female
2,0,0,CFD-LM-229-187-N.jpg,NaN,1,Latino,Male,Black,Female
2,0,0,CFD-WF-022-017-N.jpg,0.604765026000678,1,White,Female,Black,Female
2,0,0,CFD-WM-031-003-N.jpg,NaN,1,White,Male,Black,Female
2,0,0,CFD-WF-022-017-N.jpg,0.621582312000101,1,White,Female,Black,Female
2,0,0,CFD-AM-236-090-N.jpg,NaN,1,Asian,Male,Black,Female
2,0,0,CFD-AF-227-207-N.jpg,NaN,1,Asian,Female,Black,Female
2,0,0,CFD-WF-022-017-N.jpg,0.609116070991149,1,White,Female,Black,Female
3,0,0,CFD-AF-214-139-N.jpg,NaN,1,Asian,Female,Black,Female
3,0,0,CFD-LM-208-110-N.jpg,NaN,1,Latino,Male,Black,Female
3,0,0,CFD-LF-243-175-N.jpg,NaN,1,Latino,Female,Black,Female
3,0,0,CFD-WF-029-002-N.jpg,NaN,1,White,Female,Black,Female
3,0,0,CFD-LM-235-231-N.jpg,NaN,1,Latino,Male,Black,Female
3,0,0,CFD-AF-242-158-N.jpg,NaN,1,Asian,Female,Black,Female
3,0,0,CFD-WM-031-003-N.jpg,0.551606900000479,1,White,Male,Black,Female
3,0,0,CFD-WM-031-003-N.jpg,0.52845939299732,1,White,Male,Black,Female
3,0,0,CFD-WM-031-003-N.jpg,0.575593574001687,1,White,Male,Black,Female
3,0,0,CFD-LF-211-003-N.jpg,NaN,1,Latino,Female,Black,Female
4,0,0,CFD-LF-209-072-N.jpg,NaN,1,Latino,Female,Black,Female
4,0,0,CFD-WF-026-002-N.jpg,NaN,1,White,Female,Black,Female
4,0,0,CFD-LM-226-175-N.jpg,NaN,1,Latino,Male,Black,Female
4,0,0,CFD-AF-229-160-N.jpg,NaN,0,Asian,Female,Black,Female
4,0,0,CFD-AF-229-160-N.jpg,0.595153213012964,1,Asian,Female,Black,Female
4,0,0,CFD-LM-225-130-N.jpg,NaN,1,Latino,Male,Black,Female
4,0,0,CFD-LF-212-066-N.jpg,NaN,1,Latino,Female,Black,Female
4,0,0,CFD-AM-233-236-N.jpg,NaN,1,Asian,Male,Black,Female
4,0,0,CFD-WM-028-003-N.jpg,NaN,1,White,Male,Black,Female
4,0,0,CFD-AF-229-160-N.jpg,0.515272484000889,1,Asian,Female,Black,Female
5,0,0,CFD-WF-009-001-N.jpg,NaN,1,White,Female,Black,Female
5,0,0,CFD-AM-232-251-N.jpg,NaN,1,Asian,Male,Black,Female
5,0,0,CFD-AF-235-170-N.jpg,0.656880415001069,1,Asian,Female,Black,Female
5,0,0,CFD-WM-016-001-N.jpg,NaN,1,White,Male,Black,Female
5,0,0,CFD-AM-210-035-N.jpg,NaN,1,Asian,Male,Black,Female
5,0,0,CFD-WF-200-099-N.jpg,NaN,1,White,Female,Black,Female
5,0,0,CFD-AF-235-170-N.jpg,0.530359191005118,1,Asian,Female,Black,Female
5,0,0,CFD-AF-235-170-N.jpg,0.585404557001311,1,Asian,Female,Black,Female
5,0,0,CFD-BF-214-308-N.jpg,NaN,1,Black,Female,Black,Female
5,0,0,CFD-WF-011-002-N.jpg,NaN,1,White,Female,Black,Female
6,0,0,CFD-WF-019-005-N.jpg,0.521264437003992,1,White,Female,Black,Female
6,0,0,CFD-BF-209-172-N.jpg,NaN,1,Black,Female,Black,Female
6,0,0,CFD-BM-232-213-N.jpg,NaN,1,Black,Male,Black,Female
6,0,0,CFD-WM-006-002-N.jpg,NaN,1,White,Male,Black,Female
6,0,0,CFD-LM-217-162-N.jpg,NaN,1,Latino,Male,Black,Female
6,0,0,CFD-BM-224-073-N.jpg,NaN,1,Black,Male,Black,Female
6,0,0,CFD-WM-009-002-N.jpg,NaN,1,White,Male,Black,Female
6,0,0,CFD-BM-225-154-N.jpg,NaN,1,Black,Male,Black,Female
6,0,0,CFD-WF-019-005-N.jpg,NaN,0,White,Female,Black,Female
6,0,0,CFD-WF-019-005-N.jpg,0.828032744000666,1,White,Female,Black,Female
7,0,0,CFD-LM-238-129-N.jpg,0.655721785005881,1,Latino,Male,Black,Female
7,0,0,CFD-LF-211-003-N.jpg,NaN,1,Latino,Female,Black,Female
7,0,0,CFD-WM-214-026-N.jpg,NaN,1,White,Male,Black,Female
7,0,0,CFD-WM-002-009-N.jpg,NaN,1,White,Male,Black,Female
7,0,0,CFD-WM-022-001-N.jpg,NaN,1,White,Male,Black,Female
7,0,0,CFD-LM-238-129-N.jpg,0.532059190998552,1,Latino,Male,Black,Female
7,0,0,CFD-LM-211-128-N.jpg,NaN,1,Latino,Male,Black,Female
7,0,0,CFD-LM-238-129-N.jpg,0.543892174988287,1,Latino,Male,Black,Female
7,0,0,CFD-BF-209-172-N.jpg,NaN,1,Black,Female,Black,Female
7,0,0,CFD-BM-242-233-N.jpg,NaN,1,Black,Male,Black,Female
8,0,0,CFD-WF-024-003-N.jpg,NaN,1,White,Female,Black,Female
8,0,0,CFD-LF-207-198-N.jpg,NaN,1,Latino,Female,Black,Female
8,0,0,CFD-AF-219-106-N.jpg,NaN,1,Asian,Female,Black,Female
8,0,0,CFD-LF-228-125-N.jpg,NaN,1,Latino,Female,Black,Female
8,0,0,CFD-BM-245-164-N.jpg,0.588514888004283,1,Black,Male,Black,Female
8,0,0,CFD-LM-227-103-N.jpg,NaN,1,Latino,Male,Black,Female
8,0,0,CFD-BM-245-164-N.jpg,0.53844674800348,1,Black,Male,Black,Female
8,0,0,CFD-BM-245-164-N.jpg,0.562986591990921,1,Black,Male,Black,Female
8,0,0,CFD-LF-240-199-N.jpg,NaN,1,Latino,Female,Black,Female
8,0,0,CFD-AF-218-157-N.jpg,NaN,1,Asian,Female,Black,Female
9,0,0,CFD-LF-241-188-N.jpg,NaN,1,Latino,Female,Black,Female
9,0,0,CFD-AF-250-200-N.jpg,0.732101138986764,1,Asian,Female,Black,Female
9,0,0,CFD-WF-018-017-N.jpg,NaN,1,White,Female,Black,Female
9,0,0,CFD-AF-250-200-N.jpg,0.659311354000238,1,Asian,Female,Black,Female
9,0,0,CFD-AF-241-141-N.jpg,NaN,1,Asian,Female,Black,Female
9,0,0,CFD-WF-012-002-N.jpg,NaN,1,White,Female,Black,Female
9,0,0,CFD-AF-250-200-N.jpg,0.570990912994603,1,Asian,Female,Black,Female
9,0,0,CFD-AF-233-190-N.jpg,NaN,1,Asian,Female,Black,Female
9,0,0,CFD-AM-205-153-N.jpg,NaN,1,Asian,Male,Black,Female
9,0,0,CFD-AF-234-208-N.jpg,NaN,1,Asian,Female,Black,Female
10,0,0,CFD-WM-229-129-N.jpg,NaN,1,White,Male,Black,Female
10,0,0,CFD-AF-251-093-N.jpg,0.651240740000503,1,Asian,Female,Black,Female
10,0,0,CFD-AF-251-093-N.jpg,0.443252163997386,1,Asian,Female,Black,Female
10,0,0,CFD-WM-214-026-N.jpg,NaN,1,White,Male,Black,Female
10,0,0,CFD-AF-215-70-N.jpg,NaN,1,Asian,Female,Black,Female
10,0,0,CFD-LM-209-111-N.jpg,NaN,1,Latino,Male,Black,Female
10,0,0,CFD-AF-252-135-N.jpg,NaN,1,Asian,Female,Black,Female
10,0,0,CFD-AM-210-035-N.jpg,NaN,1,Asian,Male,Black,Female
10,0,0,CFD-BM-231-155-N.jpg,NaN,1,Black,Male,Black,Female
10,0,0,CFD-AF-251-093-N.jpg,0.66788218698639,1,Asian,Female,Black,Female
11,0,0,CFD-BF-201-080-N.jpg,0.498075183000765,1,Black,Female,Black,Female
11,0,0,CFD-LF-211-003-N.jpg,NaN,1,Latino,Female,Black,Female
11,0,0,CFD-BF-215-177-N.jpg,NaN,1,Black,Female,Black,Female
11,0,0,CFD-AM-252-114-N.jpg,NaN,1,Asian,Male,Black,Female
11,0,0,CFD-BF-201-080-N.jpg,0.579844643987599,1,Black,Female,Black,Female
11,0,0,CFD-BF-201-080-N.jpg,0.507789076000336,1,Black,Female,Black,Female
11,0,0,CFD-WM-034-030-N.jpg,NaN,1,White,Male,Black,Female
11,0,0,CFD-WM-019-003-N.jpg,NaN,1,White,Male,Black,Female
11,0,0,CFD-AF-233-190-N.jpg,NaN,1,Asian,Female,Black,Female
11,0,0,CFD-BF-205-141-N.jpg,NaN,1,Black,Female,Black,Female
12,0,0,CFD-LF-205-100-N.jpg,0.693932617999963,1,Latino,Female,Black,Female
12,0,0,CFD-WM-019-003-N.jpg,NaN,1,White,Male,Black,Female
12,0,0,CFD-WF-201-156-N.jpg,NaN,1,White,Female,Black,Female
12,0,0,CFD-BM-243-218-N.jpg,NaN,1,Black,Male,Black,Female
12,0,0,CFD-WM-013-001-N.jpg,NaN,1,White,Male,Black,Female
12,0,0,CFD-BF-208-266-N.jpg,NaN,1,Black,Female,Black,Female
12,0,0,CFD-LF-205-100-N.jpg,0.675465131993406,1,Latino,Female,Black,Female
12,0,0,CFD-LM-209-111-N.jpg,NaN,1,Latino,Male,Black,Female
12,0,0,CFD-BM-245-164-N.jpg,NaN,1,Black,Male,Black,Female
12,0,0,CFD-LF-205-100-N.jpg,0.715200031001586,1,Latino,Female,Black,Female
13,0,1,CFD-AF-246-242-N_degraded.jpg,NaN,1,Asian,Female,Black,Female
13,0,1,CFD-BF-210-130-N_degraded.jpg,NaN,1,Black,Female,Black,Female
13,0,1,CFD-BF-216-132-N_degraded.jpg,0.56671915599145,1,Black,Female,Black,Female
13,0,1,CFD-BF-216-132-N_degraded.jpg,0.583095082998625,1,Black,Female,Black,Female
13,0,1,CFD-BF-216-132-N_degraded.jpg,0.50320474000182,1,Black,Female,Black,Female
13,0,1,CFD-AF-200-228-N_degraded.jpg,NaN,1,Asian,Female,Black,Female
13,0,1,CFD-AM-212-050-N_degraded.jpg,NaN,1,Asian,Male,Black,Female
13,0,1,CFD-BF-220-161-N_degraded.jpg,NaN,1,Black,Female,Black,Female
13,0,1,CFD-LF-231-260-N_degraded.jpg,NaN,1,Latino,Female,Black,Female
13,0,1,CFD-WM-248-036-N_degraded.jpg,NaN,1,White,Male,Black,Female
14,0,1,CFD-LF-225-164-N_degraded.jpg,NaN,1,Latino,Female,Black,Female
14,0,1,CFD-WM-239-128-N_degraded.jpg,NaN,1,White,Male,Black,Female
14,0,1,CFD-LF-236-221-N_degraded.jpg,NaN,1,Latino,Female,Black,Female
14,0,1,CFD-LF-204-133-N_degraded.jpg,NaN,1,Latino,Female,Black,Female
14,0,1,CFD-BM-210-148-N_degraded.jpg,0.558485397006734,1,Black,Male,Black,Female
14,0,1,CFD-AM-219-101-N_degraded.jpg,NaN,1,Asian,Male,Black,Female
14,0,1,CFD-BM-238-242-N_degraded.jpg,NaN,1,Black,Male,Black,Female
14,0,1,CFD-BM-210-148-N_degraded.jpg,0.593504119999125,1,Black,Male,Black,Female
14,0,1,CFD-BM-210-148-N_degraded.jpg,0.474072326003807,1,Black,Male,Black,Female
14,0,1,CFD-AM-234-355-N_degraded.jpg,NaN,1,Asian,Male,Black,Female
15,0,1,CFD-AF-212-097-N_degraded.jpg,NaN,1,Asian,Female,Black,Female
15,0,1,CFD-LF-208-127-N_degraded.jpg,0.746101413998986,1,Latino,Female,Black,Female
15,0,1,CFD-LM-200-045-N_degraded.jpg,NaN,1,Latino,Male,Black,Female
15,0,1,CFD-WF-021-002-N_degraded.jpg,NaN,1,White,Female,Black,Female
15,0,1,CFD-WF-025-019-N_degraded.jpg,NaN,1,White,Female,Black,Female
15,0,1,CFD-AM-225-102-N_degraded.jpg,NaN,1,Asian,Male,Black,Female
15,0,1,CFD-LF-208-127-N_degraded.jpg,0.696875335997902,1,Latino,Female,Black,Female
15,0,1,CFD-AF-253-130-N_degraded.jpg,NaN,1,Asian,Female,Black,Female
15,0,1,CFD-WF-024-003-N_degraded.jpg,NaN,1,White,Female,Black,Female
15,0,1,CFD-LF-208-127-N_degraded.jpg,NaN,0,Latino,Female,Black,Female
16,0,1,CFD-AF-223-183-N_degraded.jpg,NaN,1,Asian,Female,Black,Female
16,0,1,CFD-WF-203-229-N_degraded.jpg,NaN,0,White,Female,Black,Female
16,0,1,CFD-LM-220-329-N_degraded.jpg,NaN,1,Latino,Male,Black,Female
16,0,1,CFD-WF-029-002-N_degraded.jpg,NaN,1,White,Female,Black,Female
16,0,1,CFD-AM-203-086-N_degraded.jpg,NaN,1,Asian,Male,Black,Female
16,0,1,CFD-BF-244-231-N_degraded.jpg,NaN,1,Black,Female,Black,Female
16,0,1,CFD-WF-214-122-N_degraded.jpg,NaN,1,White,Female,Black,Female
16,0,1,CFD-WF-203-229-N_degraded.jpg,0.576093658004538,1,White,Female,Black,Female
16,0,1,CFD-WF-203-229-N_degraded.jpg,0.527959069004282,1,White,Female,Black,Female
16,0,1,CFD-AM-220-134-N_degraded.jpg,NaN,1,Asian,Male,Black,Female
17,0,1,CFD-AM-246-184-N_degraded.jpg,0.604498129003332,1,Asian,Male,Black,Female
17,0,1,CFD-LM-230-202-N_degraded.jpg,NaN,1,Latino,Male,Black,Female
17,0,1,CFD-AM-246-184-N_degraded.jpg,0.587169550999533,1,Asian,Male,Black,Female
17,0,1,CFD-WF-210-086-N_degraded.jpg,NaN,1,White,Female,Black,Female
17,0,1,CFD-BM-228-145-N_degraded.jpg,NaN,1,Black,Male,Black,Female
17,0,1,CFD-AM-208-143-N_degraded.jpg,0.914091943996027,0,Asian,Male,Black,Female
17,0,1,CFD-BM-211-174-N_degraded.jpg,NaN,1,Black,Male,Black,Female
17,0,1,CFD-BF-221-223-N_degraded.jpg,NaN,1,Black,Female,Black,Female
17,0,1,CFD-AF-238-185-N_degraded.jpg,NaN,1,Asian,Female,Black,Female
17,0,1,CFD-AM-246-184-N_degraded.jpg,0.689268819012796,1,Asian,Male,Black,Female
18,0,1,CFD-BM-241-235-N_degraded.jpg,NaN,1,Black,Male,Black,Female
18,0,1,CFD-BM-217-082-N_degraded.jpg,NaN,1,Black,Male,Black,Female
18,0,1,CFD-BF-051-035-N_degraded.jpg,0.968655866003246,0,Black,Female,Black,Female
18,0,1,CFD-BM-232-213-N_degraded.jpg,NaN,1,Black,Male,Black,Female
18,0,1,CFD-BF-239-180-N_degraded.jpg,0.71516229500412,1,Black,Female,Black,Female
18,0,1,CFD-BF-239-180-N_degraded.jpg,0.499581607989967,1,Black,Female,Black,Female
18,0,1,CFD-LM-225-130-N_degraded.jpg,NaN,1,Latino,Male,Black,Female
18,0,1,CFD-WM-021-001-N_degraded.jpg,NaN,1,White,Male,Black,Female
18,0,1,CFD-BF-239-180-N_degraded.jpg,0.613332608001656,1,Black,Female,Black,Female
18,0,1,CFD-BF-201-080-N_degraded.jpg,NaN,1,Black,Female,Black,Female
19,0,1,CFD-WF-205-006-N_degraded.jpg,NaN,1,White,Female,Black,Female
19,0,1,CFD-AM-228-214-N_degraded.jpg,NaN,1,Asian,Male,Black,Female
19,0,1,CFD-AF-234-208-N_degraded.jpg,0.751772415009327,1,Asian,Female,Black,Female
19,0,1,CFD-LF-211-003-N_degraded.jpg,NaN,1,Latino,Female,Black,Female
19,0,1,CFD-WF-206-147-N_degraded.jpg,NaN,1,White,Female,Black,Female
19,0,1,CFD-AF-234-208-N_degraded.jpg,0.666098675996182,1,Asian,Female,Black,Female
19,0,1,CFD-LF-234-139-N_degraded.jpg,NaN,1,Latino,Female,Black,Female
19,0,1,CFD-AF-234-208-N_degraded.jpg,0.682929511007387,1,Asian,Female,Black,Female
19,0,1,CFD-AM-205-153-N_degraded.jpg,NaN,1,Asian,Male,Black,Female
19,0,1,CFD-LM-221-216-N_degraded.jpg,NaN,1,Latino,Male,Black,Female
20,0,1,CFD-LM-223-175-N_degraded.jpg,NaN,1,Latino,Male,Black,Female
20,0,1,CFD-BF-201-080-N_degraded.jpg,0.644867790993885,1,Black,Female,Black,Female
20,0,1,CFD-WF-002-004-N_degraded.jpg,NaN,1,White,Female,Black,Female
20,0,1,CFD-WM-019-003-N_degraded.jpg,NaN,1,White,Male,Black,Female
20,0,1,CFD-LM-238-129-N_degraded.jpg,NaN,1,Latino,Male,Black,Female
20,0,1,CFD-WM-002-009-N_degraded.jpg,NaN,1,White,Male,Black,Female
20,0,1,CFD-AM-223-138-N_degraded.jpg,NaN,1,Asian,Male,Black,Female
20,0,1,CFD-BF-201-080-N_degraded.jpg,0.669534059008583,1,Black,Female,Black,Female
20,0,1,CFD-BF-201-080-N_degraded.jpg,0.508713970993995,1,Black,Female,Black,Female
20,0,1,CFD-AF-233-190-N_degraded.jpg,NaN,1,Asian,Female,Black,Female
21,0,1,CFD-WF-202-056-N_degraded.jpg,NaN,1,White,Female,Black,Female
21,0,1,CFD-LF-224-176-N_degraded.jpg,0.722135458010598,1,Latino,Female,Black,Female
21,0,1,CFD-WM-004-010-N_degraded.jpg,NaN,1,White,Male,Black,Female
21,0,1,CFD-AF-201-060-N_degraded.jpg,NaN,1,Asian,Female,Black,Female
21,0,1,CFD-LF-224-176-N_degraded.jpg,NaN,0,Latino,Female,Black,Female
21,0,1,CFD-WM-024-015-N_degraded.jpg,NaN,1,White,Male,Black,Female
21,0,1,CFD-WM-009-002-N_degraded.jpg,NaN,1,White,Male,Black,Female
21,0,1,CFD-WF-022-017-N_degraded.jpg,NaN,1,White,Female,Black,Female
21,0,1,CFD-LF-224-176-N_degraded.jpg,NaN,0,Latino,Female,Black,Female
21,0,1,CFD-AF-200-228-N_degraded.jpg,NaN,1,Asian,Female,Black,Female
22,0,1,CFD-LF-201-035-N_degraded.jpg,NaN,1,Latino,Female,Black,Female
22,0,1,CFD-WF-206-147-N_degraded.jpg,NaN,1,White,Female,Black,Female
22,0,1,CFD-BF-233-116-N_degraded.jpg,0.607663570990553,1,Black,Female,Black,Female
22,0,1,CFD-BM-046-006-N_degraded.jpg,0.911007249000249,0,Black,Male,Black,Female
22,0,1,CFD-BM-224-073-N_degraded.jpg,NaN,1,Black,Male,Black,Female
22,0,1,CFD-BF-233-116-N_degraded.jpg,0.621782280999469,1,Black,Female,Black,Female
22,0,1,CFD-LM-224-162-N_degraded.jpg,NaN,1,Latino,Male,Black,Female
22,0,1,CFD-BF-233-116-N_degraded.jpg,0.618492134992266,1,Black,Female,Black,Female
22,0,1,CFD-LF-242-121-N_degraded.jpg,NaN,1,Latino,Female,Black,Female
22,0,1,CFD-AM-206-086-N_degraded.jpg,NaN,1,Asian,Male,Black,Female
23,0,1,CFD-AF-239-171-N_degraded.jpg,NaN,1,Asian,Female,Black,Female
23,0,1,CFD-WF-210-086-N_degraded.jpg,NaN,1,White,Female,Black,Female
23,0,1,CFD-AF-232-078-N_degraded.jpg,NaN,1,Asian,Female,Black,Female
23,0,1,CFD-BM-234-172-N_degraded.jpg,0.79516843300371,1,Black,Male,Black,Female
23,0,1,CFD-BM-243-218-N_degraded.jpg,NaN,1,Black,Male,Black,Female
23,0,1,CFD-BM-233-285-N_degraded.jpg,NaN,1,Black,Male,Black,Female
23,0,1,CFD-BM-239-136-N_degraded.jpg,NaN,1,Black,Male,Black,Female
23,0,1,CFD-BM-234-172-N_degraded.jpg,0.653224683002918,1,Black,Male,Black,Female
23,0,1,CFD-AM-239-147-N_degraded.jpg,NaN,1,Asian,Male,Black,Female
23,0,1,CFD-BM-234-172-N_degraded.jpg,0.70313895700383,1,Black,Male,Black,Female
24,0,1,CFD-AM-240-191-N_degraded.jpg,NaN,1,Asian,Male,Black,Female
24,0,1,CFD-WM-011-002-N_degraded.jpg,0.62825472500117,1,White,Male,Black,Female
24,0,1,CFD-LF-234-139-N_degraded.jpg,NaN,1,Latino,Female,Black,Female
24,0,1,CFD-AF-212-097-N_degraded.jpg,NaN,1,Asian,Female,Black,Female
24,0,1,CFD-LF-242-121-N_degraded.jpg,NaN,1,Latino,Female,Black,Female
24,0,1,CFD-BM-239-136-N_degraded.jpg,NaN,1,Black,Male,Black,Female
24,0,1,CFD-WM-011-002-N_degraded.jpg,0.593480269992142,1,White,Male,Black,Female
24,0,1,CFD-LF-207-198-N_degraded.jpg,NaN,1,Latino,Female,Black,Female
24,0,1,CFD-WM-011-002-N_degraded.jpg,0.637409688002663,1,White,Male,Black,Female
24,0,1,CFD-LM-234-176-N_degraded.jpg,NaN,1,Latino,Male,Black,Female
25,1,0,CFD-LM-211-128-N.jpg,NaN,1,Latino,Male,Black,Female
25,1,0,CFD-LM-211-128-N.jpg,0.573273335001431,1,Latino,Male,Black,Female
25,1,0,CFD-LM-211-128-N.jpg,0.573167505004676,1,Latino,Male,Black,Female
25,1,0,CFD-BM-221-198-N.jpg,NaN,1,Black,Male,Black,Female
25,1,0,CFD-AM-207-108-N.jpg,NaN,1,Asian,Male,Black,Female
25,1,0,CFD-LM-247-095-N.jpg,NaN,1,Latino,Male,Black,Female
25,1,0,CFD-AM-244-222-N.jpg,NaN,1,Asian,Male,Black,Female
25,1,0,CFD-LM-208-110-N.jpg,NaN,1,Latino,Male,Black,Female
25,1,0,CFD-WF-204-038-N.jpg,NaN,1,White,Female,Black,Female
25,1,0,CFD-WF-204-038-N.jpg,0.571217535005417,1,White,Female,Black,Female
26,1,0,CFD-WF-201-156-N.jpg,NaN,1,White,Female,Black,Female
26,1,0,CFD-WM-257-161-N.jpg,NaN,1,White,Male,Black,Female
26,1,0,CFD-AF-226-251-N.jpg,NaN,1,Asian,Female,Black,Female
26,1,0,CFD-LF-214-090-N.jpg,NaN,1,Latino,Female,Black,Female
26,1,0,CFD-WM-025-002-N.jpg,NaN,1,White,Male,Black,Female
26,1,0,CFD-WM-025-002-N.jpg,0.548798910996993,1,White,Male,Black,Female
26,1,0,CFD-BF-225-192-N.jpg,NaN,1,Black,Female,Black,Female
26,1,0,CFD-BF-225-192-N.jpg,0.576053990007495,1,Black,Female,Black,Female
26,1,0,CFD-BF-225-192-N.jpg,0.791857831005473,1,Black,Female,Black,Female
26,1,0,CFD-WF-018-017-N.jpg,NaN,1,White,Female,Black,Female
27,1,0,CFD-AF-226-251-N.jpg,NaN,1,Asian,Female,Black,Female
27,1,0,CFD-BF-211-168-N.jpg,NaN,1,Black,Female,Black,Female
27,1,0,CFD-LM-211-128-N.jpg,NaN,1,Latino,Male,Black,Female
27,1,0,CFD-LM-211-128-N.jpg,0.568624143008492,1,Latino,Male,Black,Female
27,1,0,CFD-LM-211-128-N.jpg,0.648892441997305,1,Latino,Male,Black,Female
27,1,0,CFD-BM-240-207-N.jpg,NaN,1,Black,Male,Black,Female
27,1,0,CFD-WM-230-131-N.jpg,NaN,1,White,Male,Black,Female
27,1,0,CFD-LM-243-075-N.jpg,NaN,1,Latino,Male,Black,Female
27,1,0,CFD-LM-243-075-N.jpg,0.583911232999526,1,Latino,Male,Black,Female
27,1,0,CFD-LF-221-002-N.jpg,NaN,1,Latino,Female,Black,Female
28,1,0,CFD-BM-226-276-N.jpg,NaN,1,Black,Male,Black,Female
28,1,0,CFD-BM-226-276-N.jpg,0.431715550002991,1,Black,Male,Black,Female
28,1,0,CFD-BM-226-276-N.jpg,0.423571628998616,1,Black,Male,Black,Female
28,1,0,CFD-WF-025-019-N.jpg,NaN,1,White,Female,Black,Female
28,1,0,CFD-AF-244-168-N.jpg,NaN,1,Asian,Female,Black,Female
28,1,0,CFD-WF-207-014-N.jpg,NaN,1,White,Female,Black,Female
28,1,0,CFD-WF-207-014-N.jpg,0.56703463899612,1,White,Female,Black,Female
28,1,0,CFD-AF-217-155-N.jpg,NaN,1,Asian,Female,Black,Female
28,1,0,CFD-WM-006-002-N.jpg,NaN,1,White,Male,Black,Female
28,1,0,CFD-WM-004-010-N.jpg,NaN,1,White,Male,Black,Female
29,1,0,CFD-LM-232-204-N.jpg,NaN,1,Latino,Male,Black,Female
29,1,0,CFD-WF-031-027-N.jpg,NaN,1,White,Female,Black,Female
29,1,0,CFD-WF-031-027-N.jpg,0.573940721005783,1,White,Female,Black,Female
29,1,0,CFD-AF-220-107-N.jpg,NaN,1,Asian,Female,Black,Female
29,1,0,CFD-AF-220-107-N.jpg,0.586639757995727,1,Asian,Female,Black,Female
29,1,0,CFD-WF-001-003-N.jpg,NaN,1,White,Female,Black,Female
29,1,0,CFD-WM-032-001-N.jpg,NaN,1,White,Male,Black,Female
29,1,0,CFD-BF-232-187-N.jpg,NaN,1,Black,Female,Black,Female
29,1,0,CFD-BF-232-187-N.jpg,0.498579635997885,1,Black,Female,Black,Female
29,1,0,CFD-LM-200-045-N.jpg,NaN,1,Latino,Male,Black,Female
30,1,0,CFD-LM-238-129-N.jpg,NaN,1,Latino,Male,Black,Female
30,1,0,CFD-BF-210-130-N.jpg,NaN,1,Black,Female,Black,Female
30,1,0,CFD-BF-210-130-N.jpg,0.80384955900081,1,Black,Female,Black,Female
30,1,0,CFD-BF-210-130-N.jpg,0.667943824009853,1,Black,Female,Black,Female
30,1,0,CFD-BF-210-130-N.jpg,0.547511730008409,1,Black,Female,Black,Female
30,1,0,CFD-LF-228-125-N.jpg,NaN,1,Latino,Female,Black,Female
30,1,0,CFD-BM-215-155-N.jpg,NaN,1,Black,Male,Black,Female
30,1,0,CFD-AF-241-141-N.jpg,NaN,1,Asian,Female,Black,Female
30,1,0,CFD-AF-216-106-N.jpg,NaN,1,Asian,Female,Black,Female
30,1,0,CFD-BM-239-136-N.jpg,NaN,1,Black,Male,Black,Female
31,1,0,CFD-AM-218-085-N.jpg,NaN,1,Asian,Male,Black,Female
31,1,0,CFD-BM-208-065-N.jpg,NaN,1,Black,Male,Black,Female
31,1,0,CFD-BM-208-065-N.jpg,0.788461236996227,1,Black,Male,Black,Female
31,1,0,CFD-BM-208-065-N.jpg,0.501029915991239,1,Black,Male,Black,Female
31,1,0,CFD-LM-227-103-N.jpg,NaN,1,Latino,Male,Black,Female
31,1,0,CFD-AM-230-150-N.jpg,NaN,1,Asian,Male,Black,Female
31,1,0,CFD-AM-230-150-N.jpg,0.636094032000983,1,Asian,Male,Black,Female
31,1,0,CFD-LM-215-247-N.jpg,NaN,1,Latino,Male,Black,Female
31,1,0,CFD-BM-223-171-N.jpg,NaN,1,Black,Male,Black,Female
31,1,0,CFD-BM-218-132-N.jpg,NaN,1,Black,Male,Black,Female
32,1,0,CFD-BF-206-143-N.jpg,NaN,1,Black,Female,Black,Female
32,1,0,CFD-BF-206-143-N.jpg,0.500622638006462,1,Black,Female,Black,Female
32,1,0,CFD-LF-220-120-N.jpg,NaN,1,Latino,Female,Black,Female
32,1,0,CFD-WM-029-023-N.jpg,NaN,1,White,Male,Black,Female
32,1,0,CFD-LM-233-171-N.jpg,NaN,1,Latino,Male,Black,Female
32,1,0,CFD-LM-219-295-N.jpg,NaN,1,Latino,Male,Black,Female
32,1,0,CFD-LM-219-295-N.jpg,0.774872142006643,1,Latino,Male,Black,Female
32,1,0,CFD-WM-032-001-N.jpg,NaN,1,White,Male,Black,Female
32,1,0,CFD-WF-006-002-N.jpg,NaN,1,White,Female,Black,Female
32,1,0,CFD-WF-006-002-N.jpg,0.504323132001446,1,White,Female,Black,Female
33,1,0,CFD-BF-206-143-N.jpg,NaN,1,Black,Female,Black,Female
33,1,0,CFD-BF-206-143-N.jpg,NaN,0,Black,Female,Black,Female
33,1,0,CFD-WM-247-084-N.jpg,NaN,1,White,Male,Black,Female
33,1,0,CFD-WM-247-084-N.jpg,0.510429672998725,1,White,Male,Black,Female
33,1,0,CFD-WF-008-002-N.jpg,NaN,1,White,Female,Black,Female
33,1,0,CFD-WF-008-002-N.jpg,0.591003224006272,1,White,Female,Black,Female
33,1,0,CFD-BM-235-226-N.jpg,NaN,1,Black,Male,Black,Female
33,1,0,CFD-LM-220-329-N.jpg,NaN,1,Latino,Male,Black,Female
33,1,0,CFD-BM-213-134-N.jpg,NaN,1,Black,Male,Black,Female
33,1,0,CFD-BF-245-178-N.jpg,NaN,1,Black,Female,Black,Female
34,1,0,CFD-BM-236-248-N.jpg,NaN,1,Black,Male,Black,Female
34,1,0,CFD-BF-230-189-N.jpg,NaN,1,Black,Female,Black,Female
34,1,0,CFD-WM-233-106-N.jpg,NaN,1,White,Male,Black,Female
34,1,0,CFD-LF-218-072-N.jpg,NaN,1,Latino,Female,Black,Female
34,1,0,CFD-WF-202-056-N.jpg,NaN,1,White,Female,Black,Female
34,1,0,CFD-WF-202-056-N.jpg,0.518896927998867,1,White,Female,Black,Female
34,1,0,CFD-BM-209-088-N.jpg,NaN,1,Black,Male,Black,Female
34,1,0,CFD-BM-209-088-N.jpg,0.920424433992594,1,Black,Male,Black,Female
34,1,0,CFD-BM-229-209-N.jpg,NaN,1,Black,Male,Black,Female
34,1,0,CFD-BM-229-209-N.jpg,NaN,0,Black,Male,Black,Female
35,1,0,CFD-WM-023-001-N.jpg,NaN,1,White,Male,Black,Female
35,1,0,CFD-LM-243-075-N.jpg,NaN,1,Latino,Male,Black,Female
35,1,0,CFD-LF-223-064-N.jpg,NaN,1,Latino,Female,Black,Female
35,1,0,CFD-LF-223-064-N.jpg,0.585654354988947,1,Latino,Female,Black,Female
35,1,0,CFD-LF-223-064-N.jpg,0.609865570993861,1,Latino,Female,Black,Female
35,1,0,CFD-WM-229-129-N.jpg,NaN,1,White,Male,Black,Female
35,1,0,CFD-WF-026-002-N.jpg,NaN,1,White,Female,Black,Female
35,1,0,CFD-WM-032-001-N.jpg,NaN,1,White,Male,Black,Female
35,1,0,CFD-LM-206-204-N.jpg,NaN,1,Latino,Male,Black,Female
35,1,0,CFD-LM-206-204-N.jpg,0.494199829001445,1,Latino,Male,Black,Female
36,1,0,CFD-AF-212-097-N.jpg,NaN,1,Asian,Female,Black,Female
36,1,0,CFD-AF-212-097-N.jpg,0.845728421001695,1,Asian,Female,Black,Female
36,1,0,CFD-AM-213-056-N.jpg,NaN,1,Asian,Male,Black,Female
36,1,0,CFD-AM-213-056-N.jpg,0.480268857994815,1,Asian,Male,Black,Female
36,1,0,CFD-BM-234-172-N.jpg,NaN,1,Black,Male,Black,Female
36,1,0,CFD-BM-234-172-N.jpg,0.492810636002105,1,Black,Male,Black,Female
36,1,0,CFD-LF-213-079-N.jpg,NaN,1,Latino,Female,Black,Female
36,1,0,CFD-AF-230-193-N.jpg,NaN,1,Asian,Female,Black,Female
36,1,0,CFD-LM-211-128-N.jpg,NaN,1,Latino,Male,Black,Female
36,1,0,CFD-WF-246-087-N.jpg,NaN,1,White,Female,Black,Female
37,1,1,CFD-WM-247-084-N_degraded.jpg,NaN,1,White,Male,Black,Female
37,1,1,CFD-LF-238-154-N_degraded.jpg,NaN,1,Latino,Female,Black,Female
37,1,1,CFD-LF-238-154-N_degraded.jpg,0.82368787600717,1,Latino,Female,Black,Female
37,1,1,CFD-BF-051-035-N_degraded.jpg,NaN,1,Black,Female,Black,Female
37,1,1,CFD-AM-204-122-N_degraded.jpg,NaN,1,Asian,Male,Black,Female
37,1,1,CFD-AM-204-122-N_degraded.jpg,0.826864834991284,1,Asian,Male,Black,Female
37,1,1,CFD-LF-214-090-N_degraded.jpg,NaN,1,Latino,Female,Black,Female
37,1,1,CFD-WF-026-002-N_degraded.jpg,NaN,1,White,Female,Black,Female
37,1,1,CFD-WF-026-002-N_degraded.jpg,NaN,0,White,Female,Black,Female
37,1,1,CFD-WF-029-002-N_degraded.jpg,NaN,1,White,Female,Black,Female
38,1,1,CFD-WF-246-087-N_degraded.jpg,NaN,1,White,Female,Black,Female
38,1,1,CFD-AF-252-135-N_degraded.jpg,NaN,1,Asian,Female,Black,Female
38,1,1,CFD-WF-207-014-N_degraded.jpg,NaN,1,White,Female,Black,Female
38,1,1,CFD-WM-010-001-N_degraded.jpg,NaN,1,White,Male,Black,Female
38,1,1,CFD-WM-010-001-N_degraded.jpg,0.663503669013153,1,White,Male,Black,Female
38,1,1,CFD-WM-010-001-N_degraded.jpg,0.543799616003525,1,White,Male,Black,Female
38,1,1,CFD-AM-235-241-N_degraded.jpg,NaN,1,Asian,Male,Black,Female
38,1,1,CFD-AF-236-145-N_degraded.jpg,NaN,1,Asian,Female,Black,Female
38,1,1,CFD-AF-236-145-N_degraded.jpg,0.642648038003244,1,Asian,Female,Black,Female
38,1,1,CFD-BM-233-285-N_degraded.jpg,NaN,1,Black,Male,Black,Female
39,1,1,CFD-LF-200-058-N_degraded.jpg,NaN,1,Latino,Female,Black,Female
39,1,1,CFD-LF-200-058-N_degraded.jpg,0.8475103929959,1,Latino,Female,Black,Female
39,1,1,CFD-AM-201-076-N_degraded.jpg,NaN,1,Asian,Male,Black,Female
39,1,1,CFD-AM-204-122-N_degraded.jpg,NaN,1,Asian,Male,Black,Female
39,1,1,CFD-AM-204-122-N_degraded.jpg,NaN,0,Asian,Male,Black,Female
39,1,1,CFD-WF-211-001-N_degraded.jpg,NaN,1,White,Female,Black,Female
39,1,1,CFD-LF-234-139-N_degraded.jpg,NaN,1,Latino,Female,Black,Female
39,1,1,CFD-LF-234-139-N_degraded.jpg,0.619457537992275,1,Latino,Female,Black,Female
39,1,1,CFD-BF-204-189-N_degraded.jpg,NaN,1,Black,Female,Black,Female
39,1,1,CFD-WF-207-014-N_degraded.jpg,NaN,1,White,Female,Black,Female
40,1,1,CFD-BF-233-116-N_degraded.jpg,NaN,1,Black,Female,Black,Female
40,1,1,CFD-BM-209-088-N_degraded.jpg,NaN,1,Black,Male,Black,Female
40,1,1,CFD-LF-208-127-N_degraded.jpg,NaN,1,Latino,Female,Black,Female
40,1,1,CFD-LF-208-127-N_degraded.jpg,0.69275820099574,1,Latino,Female,Black,Female
40,1,1,CFD-LF-208-127-N_degraded.jpg,0.516682132001733,1,Latino,Female,Black,Female
40,1,1,CFD-WM-006-002-N_degraded.jpg,NaN,1,White,Male,Black,Female
40,1,1,CFD-WF-009-001-N_degraded.jpg,NaN,1,White,Female,Black,Female
40,1,1,CFD-AF-233-190-N_degraded.jpg,NaN,1,Asian,Female,Black,Female
40,1,1,CFD-AF-233-190-N_degraded.jpg,0.647977355998592,1,Asian,Female,Black,Female
40,1,1,CFD-BF-208-266-N_degraded.jpg,NaN,1,Black,Female,Black,Female
41,1,1,CFD-AM-244-222-N_degraded.jpg,NaN,1,Asian,Male,Black,Female
41,1,1,CFD-AM-244-222-N_degraded.jpg,0.607976077997591,1,Asian,Male,Black,Female
41,1,1,CFD-LF-234-139-N_degraded.jpg,NaN,1,Latino,Female,Black,Female
41,1,1,CFD-BM-237-188-N_degraded.jpg,NaN,1,Black,Male,Black,Female
41,1,1,CFD-WM-009-002-N_degraded.jpg,NaN,1,White,Male,Black,Female
41,1,1,CFD-WM-022-001-N_degraded.jpg,NaN,1,White,Male,Black,Female
41,1,1,CFD-WF-023-003-N_degraded.jpg,NaN,1,White,Female,Black,Female
41,1,1,CFD-WF-023-003-N_degraded.jpg,0.922785122995265,1,White,Female,Black,Female
41,1,1,CFD-LM-228-188-N_degraded.jpg,NaN,1,Latino,Male,Black,Female
41,1,1,CFD-LM-228-188-N_degraded.jpg,0.950041008996777,1,Latino,Male,Black,Female
42,1,1,CFD-BF-231-202-N_degraded.jpg,NaN,1,Black,Female,Black,Female
42,1,1,CFD-BF-231-202-N_degraded.jpg,0.833297373988898,1,Black,Female,Black,Female
42,1,1,CFD-BF-231-202-N_degraded.jpg,0.480743944994174,1,Black,Female,Black,Female
42,1,1,CFD-AF-201-060-N_degraded.jpg,NaN,1,Asian,Female,Black,Female
42,1,1,CFD-WF-029-002-N_degraded.jpg,NaN,1,White,Female,Black,Female
42,1,1,CFD-WF-029-002-N_degraded.jpg,0.49188832299842,1,White,Female,Black,Female
42,1,1,CFD-LF-201-035-N_degraded.jpg,NaN,1,Latino,Female,Black,Female
42,1,1,CFD-BF-241-222-N_degraded.jpg,NaN,1,Black,Female,Black,Female
42,1,1,CFD-AM-238-269-N_degraded.jpg,NaN,1,Asian,Male,Black,Female
42,1,1,CFD-LF-209-072-N_degraded.jpg,NaN,1,Latino,Female,Black,Female
43,1,1,CFD-AF-233-190-N_degraded.jpg,NaN,1,Asian,Female,Black,Female
43,1,1,CFD-BM-212-117-N_degraded.jpg,NaN,1,Black,Male,Black,Female
43,1,1,CFD-AF-253-130-N_degraded.jpg,NaN,1,Asian,Female,Black,Female
43,1,1,CFD-BM-224-073-N_degraded.jpg,NaN,1,Black,Male,Black,Female
43,1,1,CFD-BM-224-073-N_degraded.jpg,0.432193161002942,1,Black,Male,Black,Female
43,1,1,CFD-BM-224-073-N_degraded.jpg,0.488274201998138,1,Black,Male,Black,Female
43,1,1,CFD-WM-009-002-N_degraded.jpg,NaN,1,White,Male,Black,Female
43,1,1,CFD-BF-236-177-N_degraded.jpg,NaN,1,Black,Female,Black,Female
43,1,1,CFD-AF-251-093-N_degraded.jpg,NaN,1,Asian,Female,Black,Female
43,1,1,CFD-AF-251-093-N_degraded.jpg,0.509035114009748,1,Asian,Female,Black,Female
44,1,1,CFD-AF-223-183-N_degraded.jpg,NaN,1,Asian,Female,Black,Female
44,1,1,CFD-AM-208-143-N_degraded.jpg,NaN,1,Asian,Male,Black,Female
44,1,1,CFD-AF-236-145-N_degraded.jpg,NaN,1,Asian,Female,Black,Female
44,1,1,CFD-LM-242-002-N_degraded.jpg,NaN,1,Latino,Male,Black,Female
44,1,1,CFD-LM-242-002-N_degraded.jpg,0.708558373997221,1,Latino,Male,Black,Female
44,1,1,CFD-BM-228-145-N_degraded.jpg,NaN,1,Black,Male,Black,Female
44,1,1,CFD-BM-228-145-N_degraded.jpg,0.475203626003349,1,Black,Male,Black,Female
44,1,1,CFD-LM-215-247-N_degraded.jpg,NaN,1,Latino,Male,Black,Female
44,1,1,CFD-LM-215-247-N_degraded.jpg,0.476584811985958,1,Latino,Male,Black,Female
44,1,1,CFD-LM-225-130-N_degraded.jpg,NaN,1,Latino,Male,Black,Female
45,1,1,CFD-LM-216-082-N_degraded.jpg,NaN,1,Latino,Male,Black,Female
45,1,1,CFD-WF-246-087-N_degraded.jpg,NaN,1,White,Female,Black,Female
45,1,1,CFD-BM-233-285-N_degraded.jpg,NaN,1,Black,Male,Black,Female
45,1,1,CFD-AM-207-108-N_degraded.jpg,NaN,1,Asian,Male,Black,Female
45,1,1,CFD-AF-233-190-N_degraded.jpg,NaN,1,Asian,Female,Black,Female
45,1,1,CFD-AF-233-190-N_degraded.jpg,0.804642996998155,1,Asian,Female,Black,Female
45,1,1,CFD-AF-233-190-N_degraded.jpg,0.467846001003636,1,Asian,Female,Black,Female
45,1,1,CFD-AF-233-190-N_degraded.jpg,0.475363096004003,1,Asian,Female,Black,Female
45,1,1,CFD-LM-231-214-N_degraded.jpg,NaN,1,Latino,Male,Black,Female
45,1,1,CFD-BF-219-137-N_degraded.jpg,NaN,1,Black,Female,Black,Female
46,1,1,CFD-LM-235-231-N_degraded.jpg,NaN,1,Latino,Male,Black,Female
46,1,1,CFD-LF-201-035-N_degraded.jpg,NaN,1,Latino,Female,Black,Female
46,1,1,CFD-LF-201-035-N_degraded.jpg,0.660538864991395,1,Latino,Female,Black,Female
46,1,1,CFD-BM-240-207-N_degraded.jpg,NaN,1,Black,Male,Black,Female
46,1,1,CFD-BM-243-218-N_degraded.jpg,NaN,1,Black,Male,Black,Female
46,1,1,CFD-WM-023-001-N_degraded.jpg,NaN,1,White,Male,Black,Female
46,1,1,CFD-WM-023-001-N_degraded.jpg,0.538900629995624,1,White,Male,Black,Female
46,1,1,CFD-BM-201-077-N_degraded.jpg,NaN,1,Black,Male,Black,Female
46,1,1,CFD-BM-201-077-N_degraded.jpg,0.496527703988249,1,Black,Male,Black,Female
46,1,1,CFD-AF-250-200-N_degraded.jpg,NaN,1,Asian,Female,Black,Female
47,1,1,CFD-WM-233-106-N_degraded.jpg,NaN,1,White,Male,Black,Female
47,1,1,CFD-AM-235-241-N_degraded.jpg,NaN,1,Asian,Male,Black,Female
47,1,1,CFD-WF-003-003-N_degraded.jpg,NaN,1,White,Female,Black,Female
47,1,1,CFD-WF-003-003-N_degraded.jpg,0.537189209004282,1,White,Female,Black,Female
47,1,1,CFD-LF-228-125-N_degraded.jpg,NaN,1,Latino,Female,Black,Female
47,1,1,CFD-BM-208-065-N_degraded.jpg,NaN,1,Black,Male,Black,Female
47,1,1,CFD-BM-208-065-N_degraded.jpg,0.573444681998808,1,Black,Male,Black,Female
47,1,1,CFD-BM-208-065-N_degraded.jpg,0.404927958996268,1,Black,Male,Black,Female
47,1,1,CFD-LF-201-035-N_degraded.jpg,NaN,1,Latino,Female,Black,Female
47,1,1,CFD-BM-241-235-N_degraded.jpg,NaN,1,Black,Male,Black,Female
48,1,1,CFD-AF-241-141-N_degraded.jpg,NaN,1,Asian,Female,Black,Female
48,1,1,CFD-WF-029-002-N_degraded.jpg,NaN,1,White,Female,Black,Female
48,1,1,CFD-BM-203-001-N_degraded.jpg,NaN,1,Black,Male,Black,Female
48,1,1,CFD-WF-008-002-N_degraded.jpg,NaN,1,White,Female,Black,Female
48,1,1,CFD-AM-220-134-N_degraded.jpg,NaN,1,Asian,Male,Black,Female
48,1,1,CFD-AF-247-278-N_degraded.jpg,NaN,1,Asian,Female,Black,Female
48,1,1,CFD-WM-009-002-N_degraded.jpg,NaN,1,White,Male,Black,Female
48,1,1,CFD-WM-009-002-N_degraded.jpg,NaN,0,White,Male,Black,Female
48,1,1,CFD-WM-009-002-N_degraded.jpg,0.542851093996433,1,White,Male,Black,Female
48,1,1,CFD-WM-009-002-N_degraded.jpg,NaN,0,White,Male,Black,Female
49,2,0,CFD-BF-232-187-N.jpg,NaN,1,Black,Female,Black,Female
49,2,0,CFD-LM-236-163-N.jpg,NaN,1,Latino,Male,Black,Female
49,2,0,CFD-AF-211-066-N.jpg,NaN,1,Asian,Female,Black,Female
49,2,0,CFD-LM-236-163-N.jpg,0.591671936999774,1,Latino,Male,Black,Female
49,2,0,CFD-BF-244-231-N.jpg,NaN,1,Black,Female,Black,Female
49,2,0,CFD-AF-211-066-N.jpg,0.639563870005077,0,Asian,Female,Black,Female
49,2,0,CFD-WM-018-002-N.jpg,NaN,1,White,Male,Black,Female
49,2,0,CFD-LF-214-090-N.jpg,NaN,1,Latino,Female,Black,Female
49,2,0,CFD-WM-018-002-N.jpg,0.61442683399946,1,White,Male,Black,Female
49,2,0,CFD-BM-233-285-N.jpg,NaN,1,Black,Male,Black,Female
50,2,0,CFD-WM-245-123-N.jpg,NaN,1,White,Male,Black,Female
50,2,0,CFD-LF-204-133-N.jpg,NaN,1,Latino,Female,Black,Female
50,2,0,CFD-WM-248-036-N.jpg,NaN,1,White,Male,Black,Female
50,2,0,CFD-BM-228-145-N.jpg,NaN,1,Black,Male,Black,Female
50,2,0,CFD-BM-216-088-N.jpg,NaN,1,Black,Male,Black,Female
50,2,0,CFD-BM-228-145-N.jpg,0.804066092998255,1,Black,Male,Black,Female
50,2,0,CFD-AM-233-236-N.jpg,NaN,1,Asian,Male,Black,Female
50,2,0,CFD-BM-216-088-N.jpg,0.730455318000168,0,Black,Male,Black,Female
50,2,0,CFD-BM-216-088-N.jpg,NaN,1,Black,Male,Black,Female
50,2,0,CFD-AM-226-234-N.jpg,NaN,1,Asian,Male,Black,Female
51,2,0,CFD-WF-031-027-N.jpg,NaN,1,White,Female,Black,Female
51,2,0,CFD-LF-203-066-N.jpg,NaN,1,Latino,Female,Black,Female
51,2,0,CFD-LF-217-082-N.jpg,NaN,1,Latino,Female,Black,Female
51,2,0,CFD-LF-203-066-N.jpg,0.838041755996528,1,Latino,Female,Black,Female
51,2,0,CFD-AM-234-355-N.jpg,NaN,1,Asian,Male,Black,Female
51,2,0,CFD-LF-229-164-N.jpg,NaN,1,Latino,Female,Black,Female
51,2,0,CFD-AM-234-355-N.jpg,0.522218117010198,1,Asian,Male,Black,Female
51,2,0,CFD-AM-234-355-N.jpg,NaN,1,Asian,Male,Black,Female
51,2,0,CFD-AM-207-108-N.jpg,NaN,1,Asian,Male,Black,Female
51,2,0,CFD-AF-227-207-N.jpg,NaN,1,Asian,Female,Black,Female
52,2,0,CFD-BM-211-174-N.jpg,NaN,1,Black,Male,Black,Female
52,2,0,CFD-LM-201-057-N.jpg,NaN,1,Latino,Male,Black,Female
52,2,0,CFD-BM-211-174-N.jpg,0.510305023999535,1,Black,Male,Black,Female
52,2,0,CFD-LF-218-072-N.jpg,NaN,1,Latino,Female,Black,Female
52,2,0,CFD-AM-201-076-N.jpg,NaN,1,Asian,Male,Black,Female
52,2,0,CFD-LF-218-072-N.jpg,0.541065381999942,1,Latino,Female,Black,Female
52,2,0,CFD-AM-201-076-N.jpg,0.484909159000381,1,Asian,Male,Black,Female
52,2,0,CFD-AM-217-085-N.jpg,NaN,1,Asian,Male,Black,Female
52,2,0,CFD-AF-200-228-N.jpg,NaN,1,Asian,Female,Black,Female
52,2,0,CFD-BM-213-134-N.jpg,NaN,1,Black,Male,Black,Female
53,2,0,CFD-AF-214-139-N.jpg,NaN,1,Asian,Female,Black,Female
53,2,0,CFD-AF-251-093-N.jpg,NaN,1,Asian,Female,Black,Female
53,2,0,CFD-WM-032-001-N.jpg,NaN,1,White,Male,Black,Female
53,2,0,CFD-AF-251-093-N.jpg,0.517338934005238,1,Asian,Female,Black,Female
53,2,0,CFD-WM-232-070-N.jpg,NaN,1,White,Male,Black,Female
53,2,0,CFD-AF-219-106-N.jpg,NaN,1,Asian,Female,Black,Female
53,2,0,CFD-BM-241-235-N.jpg,NaN,1,Black,Male,Black,Female
53,2,0,CFD-AF-219-106-N.jpg,0.757363131997408,1,Asian,Female,Black,Female
53,2,0,CFD-AF-219-106-N.jpg,NaN,1,Asian,Female,Black,Female
53,2,0,CFD-WF-206-147-N.jpg,NaN,1,White,Female,Black,Female
54,2,0,CFD-LM-201-057-N.jpg,NaN,1,Latino,Male,Black,Female
54,2,0,CFD-AF-200-228-N.jpg,NaN,1,Asian,Female,Black,Female
54,2,0,CFD-BM-045-004-N.jpg,NaN,1,Black,Male,Black,Female
54,2,0,CFD-AF-200-228-N.jpg,0.415567889009253,1,Asian,Female,Black,Female
54,2,0,CFD-WM-011-002-N.jpg,NaN,1,White,Male,Black,Female
54,2,0,CFD-AF-200-228-N.jpg,NaN,0,Asian,Female,Black,Female
54,2,0,CFD-LM-220-329-N.jpg,NaN,1,Latino,Male,Black,Female
54,2,0,CFD-BF-245-178-N.jpg,NaN,1,Black,Female,Black,Female
54,2,0,CFD-LM-220-329-N.jpg,0.774334803994861,1,Latino,Male,Black,Female
54,2,0,CFD-LF-243-175-N.jpg,NaN,1,Latino,Female,Black,Female
55,2,0,CFD-WF-206-147-N.jpg,NaN,1,White,Female,Black,Female
55,2,0,CFD-BF-211-168-N.jpg,NaN,1,Black,Female,Black,Female
55,2,0,CFD-WF-206-147-N.jpg,0.591976566996891,1,White,Female,Black,Female
55,2,0,CFD-LM-222-239-N.jpg,NaN,1,Latino,Male,Black,Female
55,2,0,CFD-BF-238-190-N.jpg,NaN,1,Black,Female,Black,Female
55,2,0,CFD-LM-222-239-N.jpg,0.522035401998437,1,Latino,Male,Black,Female
55,2,0,CFD-WM-240-125-N.jpg,NaN,1,White,Male,Black,Female
55,2,0,CFD-AF-238-185-N.jpg,NaN,1,Asian,Female,Black,Female
55,2,0,CFD-WM-240-125-N.jpg,0.677487824010313,1,White,Male,Black,Female
55,2,0,CFD-AM-246-184-N.jpg,NaN,1,Asian,Male,Black,Female
56,2,0,CFD-WF-021-002-N.jpg,NaN,1,White,Female,Black,Female
56,2,0,CFD-LM-243-075-N.jpg,NaN,1,Latino,Male,Black,Female
56,2,0,CFD-WF-021-002-N.jpg,NaN,0,White,Female,Black,Female
56,2,0,CFD-AM-207-108-N.jpg,0.787037514004624,0,Asian,Male,Black,Female
56,2,0,CFD-BM-222-173-N.jpg,NaN,1,Black,Male,Black,Female
56,2,0,CFD-BF-235-168-N.jpg,NaN,1,Black,Female,Black,Female
56,2,0,CFD-BM-222-173-N.jpg,0.785134587000357,1,Black,Male,Black,Female
56,2,0,CFD-BM-235-226-N.jpg,NaN,1,Black,Male,Black,Female
56,2,0,CFD-BF-235-168-N.jpg,NaN,1,Black,Female,Black,Female
56,2,0,CFD-LF-227-054-N.jpg,NaN,1,Latino,Female,Black,Female
57,2,0,CFD-AM-215-120-N.jpg,NaN,1,Asian,Male,Black,Female
57,2,0,CFD-LF-223-064-N.jpg,NaN,1,Latino,Female,Black,Female
57,2,0,CFD-WM-023-001-N.jpg,NaN,1,White,Male,Black,Female
57,2,0,CFD-LF-223-064-N.jpg,NaN,0,Latino,Female,Black,Female
57,2,0,CFD-WM-023-001-N.jpg,0.515187294993666,1,White,Male,Black,Female
57,2,0,CFD-WF-012-002-N.jpg,NaN,1,White,Female,Black,Female
57,2,0,CFD-WM-023-001-N.jpg,0.822357896991889,1,White,Male,Black,Female
57,2,0,CFD-LM-222-239-N.jpg,NaN,1,Latino,Male,Black,Female
57,2,0,CFD-BM-231-155-N.jpg,NaN,1,Black,Male,Black,Female
57,2,0,CFD-BF-202-109-N.jpg,NaN,1,Black,Female,Black,Female
58,2,0,CFD-WM-017-002-N.jpg,NaN,1,White,Male,Black,Female
58,2,0,CFD-WM-003-002-N.jpg,NaN,1,White,Male,Black,Female
58,2,0,CFD-WF-017-003-N.jpg,NaN,1,White,Female,Black,Female
58,2,0,CFD-WM-020-001-N.jpg,NaN,1,White,Male,Black,Female
58,2,0,CFD-WF-017-003-N.jpg,0.858634875010466,1,White,Female,Black,Female
58,2,0,CFD-AM-220-134-N.jpg,NaN,1,Asian,Male,Black,Female
58,2,0,CFD-WM-020-001-N.jpg,NaN,1,White,Male,Black,Female
58,2,0,CFD-LF-203-066-N.jpg,NaN,1,Latino,Female,Black,Female
58,2,0,CFD-AM-220-134-N.jpg,NaN,1,Asian,Male,Black,Female
58,2,0,CFD-LF-241-188-N.jpg,NaN,1,Latino,Female,Black,Female
59,2,0,CFD-LM-244-068-N.jpg,NaN,1,Latino,Male,Black,Female
59,2,0,CFD-WF-026-002-N.jpg,NaN,1,White,Female,Black,Female
59,2,0,CFD-LM-244-068-N.jpg,0.61688065699127,1,Latino,Male,Black,Female
59,2,0,CFD-LF-234-139-N.jpg,NaN,1,Latino,Female,Black,Female
59,2,0,CFD-LM-244-068-N.jpg,NaN,0,Latino,Male,Black,Female
59,2,0,CFD-AF-239-171-N.jpg,NaN,1,Asian,Female,Black,Female
59,2,0,CFD-WM-018-002-N.jpg,NaN,1,White,Male,Black,Female
59,2,0,CFD-AF-239-171-N.jpg,0.621847421993152,1,Asian,Female,Black,Female
59,2,0,CFD-AF-228-173-N.jpg,NaN,1,Asian,Female,Black,Female
59,2,0,CFD-LF-206-078-N.jpg,NaN,1,Latino,Female,Black,Female
60,2,0,CFD-AM-245-111-N.jpg,NaN,1,Asian,Male,Black,Female
60,2,0,CFD-WM-003-002-N.jpg,NaN,1,White,Male,Black,Female
60,2,0,CFD-AM-245-111-N.jpg,0.462885084998561,1,Asian,Male,Black,Female
60,2,0,CFD-LM-233-171-N.jpg,NaN,1,Latino,Male,Black,Female
60,2,0,CFD-BF-245-178-N.jpg,NaN,1,Black,Female,Black,Female
60,2,0,CFD-AM-246-184-N.jpg,NaN,1,Asian,Male,Black,Female
60,2,0,CFD-BF-245-178-N.jpg,0.494490276003489,1,Black,Female,Black,Female
60,2,0,CFD-BF-245-178-N.jpg,NaN,1,Black,Female,Black,Female
60,2,0,CFD-AM-252-114-N.jpg,NaN,1,Asian,Male,Black,Female
60,2,0,CFD-WF-002-004-N.jpg,NaN,1,White,Female,Black,Female
61,2,1,CFD-LM-247-095-N_degraded.jpg,NaN,1,Latino,Male,Black,Female
61,2,1,CFD-WM-239-128-N_degraded.jpg,NaN,1,White,Male,Black,Female
61,2,1,CFD-LM-247-095-N_degraded.jpg,0.597074943012558,1,Latino,Male,Black,Female
61,2,1,CFD-WM-239-128-N_degraded.jpg,NaN,0,White,Male,Black,Female
61,2,1,CFD-BM-200-046-N_degraded.jpg,NaN,1,Black,Male,Black,Female
61,2,1,CFD-BF-202-109-N_degraded.jpg,NaN,1,Black,Female,Black,Female
61,2,1,CFD-BM-200-046-N_degraded.jpg,0.809773286993732,1,Black,Male,Black,Female
61,2,1,CFD-WF-214-122-N_degraded.jpg,NaN,1,White,Female,Black,Female
61,2,1,CFD-WF-019-005-N_degraded.jpg,NaN,1,White,Female,Black,Female
61,2,1,CFD-BM-229-209-N_degraded.jpg,NaN,1,Black,Male,Black,Female
62,2,1,CFD-LF-211-003-N_degraded.jpg,NaN,1,Latino,Female,Black,Female
62,2,1,CFD-BF-238-190-N_degraded.jpg,NaN,1,Black,Female,Black,Female
62,2,1,CFD-LF-211-003-N_degraded.jpg,0.622754637995968,1,Latino,Female,Black,Female
62,2,1,CFD-BF-222-240-N_degraded.jpg,NaN,1,Black,Female,Black,Female
62,2,1,CFD-LM-237-264-N_degraded.jpg,NaN,1,Latino,Male,Black,Female
62,2,1,CFD-LF-203-066-N_degraded.jpg,NaN,1,Latino,Female,Black,Female
62,2,1,CFD-LM-237-264-N_degraded.jpg,NaN,0,Latino,Male,Black,Female
62,2,1,CFD-LF-203-066-N_degraded.jpg,NaN,0,Latino,Female,Black,Female
62,2,1,CFD-WF-013-003-N_degraded.jpg,NaN,1,White,Female,Black,Female
62,2,1,CFD-AM-230-150-N_degraded.jpg,NaN,1,Asian,Male,Black,Female
63,2,1,CFD-LM-222-239-N_degraded.jpg,NaN,1,Latino,Male,Black,Female
63,2,1,CFD-WM-031-003-N_degraded.jpg,NaN,1,White,Male,Black,Female
63,2,1,CFD-LM-222-239-N_degraded.jpg,0.609247612999752,1,Latino,Male,Black,Female
63,2,1,CFD-WM-031-003-N_degraded.jpg,0.585264152003219,1,White,Male,Black,Female
63,2,1,CFD-AF-241-141-N_degraded.jpg,NaN,1,Asian,Female,Black,Female
63,2,1,CFD-WM-013-001-N_degraded.jpg,0.740683984011412,0,White,Male,Black,Female
63,2,1,CFD-LF-201-035-N_degraded.jpg,NaN,1,Latino,Female,Black,Female
63,2,1,CFD-LF-238-154-N_degraded.jpg,NaN,1,Latino,Female,Black,Female
63,2,1,CFD-LF-201-035-N_degraded.jpg,0.737929410999641,1,Latino,Female,Black,Female
63,2,1,CFD-BF-221-223-N_degraded.jpg,NaN,1,Black,Female,Black,Female
64,2,1,CFD-BF-244-231-N_degraded.jpg,NaN,1,Black,Female,Black,Female
64,2,1,CFD-LF-243-175-N_degraded.jpg,NaN,1,Latino,Female,Black,Female
64,2,1,CFD-BF-244-231-N_degraded.jpg,NaN,0,Black,Female,Black,Female
64,2,1,CFD-WM-255-219-N_degraded.jpg,NaN,1,White,Male,Black,Female
64,2,1,CFD-LF-204-133-N_degraded.jpg,NaN,1,Latino,Female,Black,Female
64,2,1,CFD-WM-242-011-N_degraded.jpg,NaN,1,White,Male,Black,Female
64,2,1,CFD-LF-204-133-N_degraded.jpg,NaN,0,Latino,Female,Black,Female
64,2,1,CFD-WM-242-011-N_degraded.jpg,NaN,0,White,Male,Black,Female
64,2,1,CFD-AM-238-269-N_degraded.jpg,NaN,1,Asian,Male,Black,Female
64,2,1,CFD-BM-204-003-N_degraded.jpg,NaN,1,Black,Male,Black,Female
65,2,1,CFD-BM-216-088-N_degraded.jpg,NaN,1,Black,Male,Black,Female
65,2,1,CFD-WF-024-003-N_degraded.jpg,NaN,1,White,Female,Black,Female
65,2,1,CFD-BM-216-088-N_degraded.jpg,0.549615925003309,1,Black,Male,Black,Female
65,2,1,CFD-BM-045-004-N_degraded.jpg,NaN,1,Black,Male,Black,Female
65,2,1,CFD-BF-223-250-N_degraded.jpg,NaN,1,Black,Female,Black,Female
65,2,1,CFD-WM-240-125-N_degraded.jpg,NaN,1,White,Male,Black,Female
65,2,1,CFD-BF-223-250-N_degraded.jpg,0.702816207995056,1,Black,Female,Black,Female
65,2,1,CFD-BF-223-250-N_degraded.jpg,NaN,1,Black,Female,Black,Female
65,2,1,CFD-LM-232-204-N_degraded.jpg,NaN,1,Latino,Male,Black,Female
65,2,1,CFD-BM-211-174-N_degraded.jpg,NaN,1,Black,Male,Black,Female
66,2,1,CFD-AF-235-170-N_degraded.jpg,NaN,1,Asian,Female,Black,Female
66,2,1,CFD-AF-252-135-N_degraded.jpg,NaN,1,Asian,Female,Black,Female
66,2,1,CFD-WM-240-125-N_degraded.jpg,NaN,1,White,Male,Black,Female
66,2,1,CFD-BM-243-218-N_degraded.jpg,NaN,1,Black,Male,Black,Female
66,2,1,CFD-WM-240-125-N_degraded.jpg,0.59187551899231,1,White,Male,Black,Female
66,2,1,CFD-BM-243-218-N_degraded.jpg,0.583686056997976,1,Black,Male,Black,Female
66,2,1,CFD-AF-215-70-N_degraded.jpg,NaN,1,Asian,Female,Black,Female
66,2,1,CFD-AF-228-173-N_degraded.jpg,NaN,1,Asian,Female,Black,Female
66,2,1,CFD-AF-215-70-N_degraded.jpg,0.808880790995318,1,Asian,Female,Black,Female
66,2,1,CFD-AM-206-086-N_degraded.jpg,NaN,1,Asian,Male,Black,Female
67,2,1,CFD-BM-244-197-N_degraded.jpg,NaN,1,Black,Male,Black,Female
67,2,1,CFD-AF-233-190-N_degraded.jpg,NaN,1,Asian,Female,Black,Female
67,2,1,CFD-WM-010-001-N_degraded.jpg,NaN,1,White,Male,Black,Female
67,2,1,CFD-AF-233-190-N_degraded.jpg,NaN,0,Asian,Female,Black,Female
67,2,1,CFD-BF-213-188-N_degraded.jpg,0.94186808700033,0,Black,Female,Black,Female
67,2,1,CFD-AF-233-190-N_degraded.jpg,0.773224325996125,1,Asian,Female,Black,Female
67,2,1,CFD-BF-205-141-N_degraded.jpg,NaN,1,Black,Female,Black,Female
67,2,1,CFD-LF-230-203-N_degraded.jpg,NaN,1,Latino,Female,Black,Female
67,2,1,CFD-BF-205-141-N_degraded.jpg,0.937713923005504,1,Black,Female,Black,Female
67,2,1,CFD-BM-234-172-N_degraded.jpg,NaN,1,Black,Male,Black,Female
68,2,1,CFD-LF-243-175-N_degraded.jpg,NaN,1,Latino,Female,Black,Female
68,2,1,CFD-BF-211-168-N_degraded.jpg,NaN,1,Black,Female,Black,Female
68,2,1,CFD-LF-243-175-N_degraded.jpg,0.59280341900012,1,Latino,Female,Black,Female
68,2,1,CFD-AM-231-136-N_degraded.jpg,NaN,1,Asian,Male,Black,Female
68,2,1,CFD-BF-211-168-N_degraded.jpg,NaN,1,Black,Female,Black,Female
68,2,1,CFD-BM-222-173-N_degraded.jpg,NaN,1,Black,Male,Black,Female
68,2,1,CFD-BF-211-168-N_degraded.jpg,0.799170950005646,1,Black,Female,Black,Female
68,2,1,CFD-AF-217-155-N_degraded.jpg,NaN,1,Asian,Female,Black,Female
68,2,1,CFD-WF-212-050-N_degraded.jpg,NaN,1,White,Female,Black,Female
68,2,1,CFD-LF-235-219-N_degraded.jpg,NaN,1,Latino,Female,Black,Female
69,2,1,CFD-WF-211-001-N_degraded.jpg,NaN,1,White,Female,Black,Female
69,2,1,CFD-BM-225-154-N_degraded.jpg,NaN,1,Black,Male,Black,Female
69,2,1,CFD-WF-211-001-N_degraded.jpg,0.490269866000745,1,White,Female,Black,Female
69,2,1,CFD-LF-216-121-N_degraded.jpg,NaN,1,Latino,Female,Black,Female
69,2,1,CFD-LF-222-147-N_degraded.jpg,NaN,1,Latino,Female,Black,Female
69,2,1,CFD-LF-216-121-N_degraded.jpg,0.648651534997043,1,Latino,Female,Black,Female
69,2,1,CFD-LM-220-329-N_degraded.jpg,NaN,1,Latino,Male,Black,Female
69,2,1,CFD-LF-216-121-N_degraded.jpg,NaN,0,Latino,Female,Black,Female
69,2,1,CFD-BF-242-154-N_degraded.jpg,NaN,1,Black,Female,Black,Female
69,2,1,CFD-AF-236-145-N_degraded.jpg,NaN,1,Asian,Female,Black,Female
70,2,1,CFD-AF-221-147-N_degraded.jpg,NaN,1,Asian,Female,Black,Female
70,2,1,CFD-WM-203-023-N_degraded.jpg,NaN,1,White,Male,Black,Female
70,2,1,CFD-LM-243-075-N_degraded.jpg,NaN,1,Latino,Male,Black,Female
70,2,1,CFD-WM-024-015-N_degraded.jpg,NaN,1,White,Male,Black,Female
70,2,1,CFD-LM-243-075-N_degraded.jpg,0.672002459992655,1,Latino,Male,Black,Female
70,2,1,CFD-LF-202-065-N_degraded.jpg,NaN,1,Latino,Female,Black,Female
70,2,1,CFD-WM-024-015-N_degraded.jpg,NaN,1,White,Male,Black,Female
70,2,1,CFD-AM-243-212-N_degraded.jpg,NaN,1,Asian,Male,Black,Female
70,2,1,CFD-WM-024-015-N_degraded.jpg,0.669738153010258,1,White,Male,Black,Female
70,2,1,CFD-BF-202-109-N_degraded.jpg,NaN,1,Black,Female,Black,Female
71,2,1,CFD-WF-002-004-N_degraded.jpg,NaN,1,White,Female,Black,Female
71,2,1,CFD-AF-248-148-N_degraded.jpg,NaN,1,Asian,Female,Black,Female
71,2,1,CFD-WF-002-004-N_degraded.jpg,0.549760299996706,1,White,Female,Black,Female
71,2,1,CFD-LF-233-277-N_degraded.jpg,NaN,1,Latino,Female,Black,Female
71,2,1,CFD-BM-218-132-N_degraded.jpg,NaN,1,Black,Male,Black,Female
71,2,1,CFD-LF-233-277-N_degraded.jpg,0.584982432003017,1,Latino,Female,Black,Female
71,2,1,CFD-BM-218-132-N_degraded.jpg,0.60907411199878,1,Black,Male,Black,Female
71,2,1,CFD-LM-238-129-N_degraded.jpg,NaN,1,Latino,Male,Black,Female
71,2,1,CFD-BF-202-109-N_degraded.jpg,0.862920236992068,0,Black,Female,Black,Female
71,2,1,CFD-AF-242-158-N_degraded.jpg,NaN,1,Asian,Female,Black,Female
72,2,1,CFD-BM-229-209-N_degraded.jpg,0.363267746986821,0,Black,Male,Black,Female
72,2,1,CFD-LM-212-143-N_degraded.jpg,NaN,1,Latino,Male,Black,Female
72,2,1,CFD-WF-029-002-N_degraded.jpg,NaN,1,White,Female,Black,Female
72,2,1,CFD-LM-212-143-N_degraded.jpg,0.709285511999042,1,Latino,Male,Black,Female
72,2,1,CFD-WF-029-002-N_degraded.jpg,NaN,0,White,Female,Black,Female
72,2,1,CFD-BF-219-137-N_degraded.jpg,NaN,1,Black,Female,Black,Female
72,2,1,CFD-BM-208-065-N_degraded.jpg,NaN,1,Black,Male,Black,Female
72,2,1,CFD-BF-219-137-N_degraded.jpg,0.595789211001829,1,Black,Female,Black,Female
72,2,1,CFD-WF-232-161-N_degraded.jpg,NaN,1,White,Female,Black,Female
72,2,1,CFD-LM-226-175-N_degraded.jpg,NaN,1,Latino,Male,Black,Female
