Trial,nBack,Degradation,Image,RT,Accuracy,Race,Gender,SubRace,SubGender
1,0,1,CFD-WM-026-001-N_degraded.jpg,0.469899768999312,1,White,Male,Multiracial,Male
1,0,1,CFD-LF-223-064-N_degraded.jpg,NaN,1,Latino,Female,Multiracial,Male
1,0,1,CFD-AF-211-066-N_degraded.jpg,NaN,1,Asian,Female,Multiracial,Male
1,0,1,CFD-WM-026-001-N_degraded.jpg,0.590462363994448,1,White,Male,Multiracial,Male
1,0,1,CFD-WM-026-001-N_degraded.jpg,0.565794727997854,1,White,Male,Multiracial,Male
1,0,1,CFD-AM-203-086-N_degraded.jpg,NaN,1,Asian,Male,Multiracial,Male
1,0,1,CFD-BM-233-285-N_degraded.jpg,NaN,1,Black,Male,Multiracial,Male
1,0,1,CFD-BF-230-189-N_degraded.jpg,NaN,1,Black,Female,Multiracial,Male
1,0,1,CFD-AM-214-168-N_degraded.jpg,NaN,1,Asian,Male,Multiracial,Male
1,0,1,CFD-WF-013-003-N_degraded.jpg,NaN,1,White,Female,Multiracial,Male
2,0,1,CFD-AM-211-052-N_degraded.jpg,NaN,1,Asian,Male,Multiracial,Male
2,0,1,CFD-AF-236-145-N_degraded.jpg,NaN,1,Asian,Female,Multiracial,Male
2,0,1,CFD-AM-240-191-N_degraded.jpg,0.667646661997424,1,Asian,Male,Multiracial,Male
2,0,1,CFD-AM-240-191-N_degraded.jpg,0.532475706990226,1,Asian,Male,Multiracial,Male
2,0,1,CFD-BM-222-173-N_degraded.jpg,NaN,1,Black,Male,Multiracial,Male
2,0,1,CFD-WF-027-003-N_degraded.jpg,NaN,1,White,Female,Multiracial,Male
2,0,1,CFD-AM-240-191-N_degraded.jpg,0.804534955008421,1,Asian,Male,Multiracial,Male
2,0,1,CFD-LF-211-003-N_degraded.jpg,NaN,1,Latino,Female,Multiracial,Male
2,0,1,CFD-WM-245-123-N_degraded.jpg,NaN,1,White,Male,Multiracial,Male
2,0,1,CFD-WM-017-002-N_degraded.jpg,NaN,1,White,Male,Multiracial,Male
3,0,1,CFD-LF-224-176-N_degraded.jpg,NaN,1,Latino,Female,Multiracial,Male
3,0,1,CFD-BM-221-198-N_degraded.jpg,0.624893564992817,1,Black,Male,Multiracial,Male
3,0,1,CFD-WM-016-001-N_degraded.jpg,NaN,1,White,Male,Multiracial,Male
3,0,1,CFD-BM-221-198-N_degraded.jpg,0.604213772006915,1,Black,Male,Multiracial,Male
3,0,1,CFD-AM-208-143-N_degraded.jpg,NaN,1,Asian,Male,Multiracial,Male
3,0,1,CFD-WF-208-068-N_degraded.jpg,NaN,1,White,Female,Multiracial,Male
3,0,1,CFD-AM-205-153-N_degraded.jpg,NaN,1,Asian,Male,Multiracial,Male
3,0,1,CFD-BM-221-198-N_degraded.jpg,0.610293284000363,1,Black,Male,Multiracial,Male
3,0,1,CFD-BF-204-189-N_degraded.jpg,NaN,1,Black,Female,Multiracial,Male
3,0,1,CFD-AM-223-138-N_degraded.jpg,NaN,1,Asian,Male,Multiracial,Male
4,0,1,CFD-AM-224-126-N_degraded.jpg,0.544435339004849,1,Asian,Male,Multiracial,Male
4,0,1,CFD-AF-226-251-N_degraded.jpg,NaN,1,Asian,Female,Multiracial,Male
4,0,1,CFD-AM-224-126-N_degraded.jpg,0.613361369003542,1,Asian,Male,Multiracial,Male
4,0,1,CFD-BM-239-136-N_degraded.jpg,NaN,1,Black,Male,Multiracial,Male
4,0,1,CFD-AM-224-126-N_degraded.jpg,0.490489421004895,1,Asian,Male,Multiracial,Male
4,0,1,CFD-BM-214-075-N_degraded.jpg,NaN,1,Black,Male,Multiracial,Male
4,0,1,CFD-WM-025-002-N_degraded.jpg,NaN,1,White,Male,Multiracial,Male
4,0,1,CFD-BM-238-242-N_degraded.jpg,NaN,1,Black,Male,Multiracial,Male
4,0,1,CFD-WM-010-001-N_degraded.jpg,NaN,1,White,Male,Multiracial,Male
4,0,1,CFD-AM-244-222-N_degraded.jpg,NaN,1,Asian,Male,Multiracial,Male
5,0,1,CFD-WM-031-003-N_degraded.jpg,0.52548379500513,1,White,Male,Multiracial,Male
5,0,1,CFD-WM-204-031-N_degraded.jpg,NaN,1,White,Male,Multiracial,Male
5,0,1,CFD-WM-031-003-N_degraded.jpg,0.581683055002941,1,White,Male,Multiracial,Male
5,0,1,CFD-AF-212-097-N_degraded.jpg,NaN,1,Asian,Female,Multiracial,Male
5,0,1,CFD-BF-236-177-N_degraded.jpg,NaN,1,Black,Female,Multiracial,Male
5,0,1,CFD-WF-023-003-N_degraded.jpg,NaN,1,White,Female,Multiracial,Male
5,0,1,CFD-AM-241-287-N_degraded.jpg,NaN,1,Asian,Male,Multiracial,Male
5,0,1,CFD-LF-225-164-N_degraded.jpg,NaN,1,Latino,Female,Multiracial,Male
5,0,1,CFD-AF-230-193-N_degraded.jpg,NaN,1,Asian,Female,Multiracial,Male
5,0,1,CFD-WM-031-003-N_degraded.jpg,0.631305777002126,1,White,Male,Multiracial,Male
6,0,1,CFD-LF-243-175-N_degraded.jpg,NaN,1,Latino,Female,Multiracial,Male
6,0,1,CFD-LM-225-130-N_degraded.jpg,0.591043128006277,1,Latino,Male,Multiracial,Male
6,0,1,CFD-AM-223-138-N_degraded.jpg,NaN,1,Asian,Male,Multiracial,Male
6,0,1,CFD-BF-242-154-N_degraded.jpg,NaN,1,Black,Female,Multiracial,Male
6,0,1,CFD-LM-225-130-N_degraded.jpg,0.687145175004844,1,Latino,Male,Multiracial,Male
6,0,1,CFD-WF-009-001-N_degraded.jpg,NaN,1,White,Female,Multiracial,Male
6,0,1,CFD-AF-237-223-N_degraded.jpg,NaN,1,Asian,Female,Multiracial,Male
6,0,1,CFD-LM-225-130-N_degraded.jpg,0.600160040004994,1,Latino,Male,Multiracial,Male
6,0,1,CFD-WF-005-010-N_degraded.jpg,NaN,1,White,Female,Multiracial,Male
6,0,1,CFD-WM-019-003-N_degraded.jpg,NaN,1,White,Male,Multiracial,Male
7,0,1,CFD-LF-227-054-N_degraded.jpg,NaN,1,Latino,Female,Multiracial,Male
7,0,1,CFD-LF-215-157-N_degraded.jpg,NaN,1,Latino,Female,Multiracial,Male
7,0,1,CFD-WF-025-019-N_degraded.jpg,0.547634907008614,1,White,Female,Multiracial,Male
7,0,1,CFD-LF-240-199-N_degraded.jpg,NaN,1,Latino,Female,Multiracial,Male
7,0,1,CFD-WF-025-019-N_degraded.jpg,0.549157858011313,1,White,Female,Multiracial,Male
7,0,1,CFD-WM-025-002-N_degraded.jpg,NaN,1,White,Male,Multiracial,Male
7,0,1,CFD-LF-211-003-N_degraded.jpg,NaN,1,Latino,Female,Multiracial,Male
7,0,1,CFD-WF-025-019-N_degraded.jpg,0.535240177006926,1,White,Female,Multiracial,Male
7,0,1,CFD-BF-236-177-N_degraded.jpg,NaN,1,Black,Female,Multiracial,Male
7,0,1,CFD-WF-212-050-N_degraded.jpg,NaN,1,White,Female,Multiracial,Male
8,0,1,CFD-AF-248-148-N_degraded.jpg,NaN,1,Asian,Female,Multiracial,Male
8,0,1,CFD-BM-221-198-N_degraded.jpg,NaN,1,Black,Male,Multiracial,Male
8,0,1,CFD-BF-221-223-N_degraded.jpg,0.624182725994615,1,Black,Female,Multiracial,Male
8,0,1,CFD-AM-223-138-N_degraded.jpg,NaN,1,Asian,Male,Multiracial,Male
8,0,1,CFD-BF-221-223-N_degraded.jpg,0.631984526000451,1,Black,Female,Multiracial,Male
8,0,1,CFD-BF-221-223-N_degraded.jpg,0.544153551003546,1,Black,Female,Multiracial,Male
8,0,1,CFD-WM-021-001-N_degraded.jpg,NaN,1,White,Male,Multiracial,Male
8,0,1,CFD-BM-219-141-N_degraded.jpg,NaN,1,Black,Male,Multiracial,Male
8,0,1,CFD-WM-011-002-N_degraded.jpg,NaN,1,White,Male,Multiracial,Male
8,0,1,CFD-WM-231-112-N_degraded.jpg,NaN,1,White,Male,Multiracial,Male
9,0,1,CFD-LM-235-231-N_degraded.jpg,NaN,1,Latino,Male,Multiracial,Male
9,0,1,CFD-AF-239-171-N_degraded.jpg,NaN,1,Asian,Female,Multiracial,Male
9,0,1,CFD-BF-203-184-N_degraded.jpg,NaN,1,Black,Female,Multiracial,Male
9,0,1,CFD-BM-217-082-N_degraded.jpg,0.620247569007915,1,Black,Male,Multiracial,Male
9,0,1,CFD-BM-217-082-N_degraded.jpg,0.628248752007494,1,Black,Male,Multiracial,Male
9,0,1,CFD-WM-018-002-N_degraded.jpg,NaN,1,White,Male,Multiracial,Male
9,0,1,CFD-AF-218-157-N_degraded.jpg,NaN,1,Asian,Female,Multiracial,Male
9,0,1,CFD-LF-202-065-N_degraded.jpg,NaN,1,Latino,Female,Multiracial,Male
9,0,1,CFD-BM-217-082-N_degraded.jpg,0.525077133992454,1,Black,Male,Multiracial,Male
9,0,1,CFD-WF-018-017-N_degraded.jpg,NaN,1,White,Female,Multiracial,Male
10,0,1,CFD-LM-222-239-N_degraded.jpg,0.539576549999765,1,Latino,Male,Multiracial,Male
10,0,1,CFD-WM-012-001-N_degraded.jpg,NaN,1,White,Male,Multiracial,Male
10,0,1,CFD-AF-221-147-N_degraded.jpg,NaN,1,Asian,Female,Multiracial,Male
10,0,1,CFD-BM-205-001-N_degraded.jpg,NaN,1,Black,Male,Multiracial,Male
10,0,1,CFD-BF-242-154-N_degraded.jpg,NaN,1,Black,Female,Multiracial,Male
10,0,1,CFD-LM-222-239-N_degraded.jpg,0.557049337003264,1,Latino,Male,Multiracial,Male
10,0,1,CFD-WF-014-002-N_degraded.jpg,NaN,1,White,Female,Multiracial,Male
10,0,1,CFD-WM-242-011-N_degraded.jpg,NaN,1,White,Male,Multiracial,Male
10,0,1,CFD-WF-246-087-N_degraded.jpg,NaN,1,White,Female,Multiracial,Male
10,0,1,CFD-LM-222-239-N_degraded.jpg,0.555621637002332,1,Latino,Male,Multiracial,Male
11,0,1,CFD-LM-235-231-N_degraded.jpg,0.529136643002857,1,Latino,Male,Multiracial,Male
11,0,1,CFD-LM-235-231-N_degraded.jpg,0.616360007988987,1,Latino,Male,Multiracial,Male
11,0,1,CFD-WM-013-001-N_degraded.jpg,NaN,1,White,Male,Multiracial,Male
11,0,1,CFD-LM-235-231-N_degraded.jpg,0.600851655006409,1,Latino,Male,Multiracial,Male
11,0,1,CFD-LM-240-013-N_degraded.jpg,NaN,1,Latino,Male,Multiracial,Male
11,0,1,CFD-BF-230-189-N_degraded.jpg,NaN,1,Black,Female,Multiracial,Male
11,0,1,CFD-LM-226-175-N_degraded.jpg,NaN,1,Latino,Male,Multiracial,Male
11,0,1,CFD-AF-218-157-N_degraded.jpg,NaN,1,Asian,Female,Multiracial,Male
11,0,1,CFD-AM-228-214-N_degraded.jpg,NaN,1,Asian,Male,Multiracial,Male
11,0,1,CFD-WM-004-010-N_degraded.jpg,NaN,1,White,Male,Multiracial,Male
12,0,1,CFD-BM-241-235-N_degraded.jpg,NaN,1,Black,Male,Multiracial,Male
12,0,1,CFD-WM-006-002-N_degraded.jpg,0.823234316994785,1,White,Male,Multiracial,Male
12,0,1,CFD-AM-216-114-N_degraded.jpg,NaN,1,Asian,Male,Multiracial,Male
12,0,1,CFD-LM-231-214-N_degraded.jpg,NaN,1,Latino,Male,Multiracial,Male
12,0,1,CFD-WM-006-002-N_degraded.jpg,NaN,0,White,Male,Multiracial,Male
12,0,1,CFD-WM-232-070-N_degraded.jpg,NaN,1,White,Male,Multiracial,Male
12,0,1,CFD-AF-218-157-N_degraded.jpg,NaN,1,Asian,Female,Multiracial,Male
12,0,1,CFD-WM-006-002-N_degraded.jpg,0.578879976994358,1,White,Male,Multiracial,Male
12,0,1,CFD-BM-232-213-N_degraded.jpg,NaN,1,Black,Male,Multiracial,Male
12,0,1,CFD-BM-243-218-N_degraded.jpg,NaN,1,Black,Male,Multiracial,Male
13,0,0,CFD-BM-218-132-N.jpg,NaN,1,Black,Male,Multiracial,Male
13,0,0,CFD-LM-215-247-N.jpg,0.627170485007809,1,Latino,Male,Multiracial,Male
13,0,0,CFD-LF-206-078-N.jpg,NaN,1,Latino,Female,Multiracial,Male
13,0,0,CFD-WM-232-070-N.jpg,NaN,1,White,Male,Multiracial,Male
13,0,0,CFD-LM-209-111-N.jpg,NaN,1,Latino,Male,Multiracial,Male
13,0,0,CFD-WF-024-003-N.jpg,NaN,1,White,Female,Multiracial,Male
13,0,0,CFD-LM-215-247-N.jpg,0.615906615988933,1,Latino,Male,Multiracial,Male
13,0,0,CFD-LM-215-247-N.jpg,0.775739618999069,1,Latino,Male,Multiracial,Male
13,0,0,CFD-BM-227-191-N.jpg,NaN,1,Black,Male,Multiracial,Male
13,0,0,CFD-WF-017-003-N.jpg,NaN,1,White,Female,Multiracial,Male
14,0,0,CFD-AM-216-114-N.jpg,NaN,1,Asian,Male,Multiracial,Male
14,0,0,CFD-LM-200-045-N.jpg,NaN,1,Latino,Male,Multiracial,Male
14,0,0,CFD-LM-214-165-N.jpg,0.714475613000104,1,Latino,Male,Multiracial,Male
14,0,0,CFD-BM-219-141-N.jpg,NaN,1,Black,Male,Multiracial,Male
14,0,0,CFD-LM-214-165-N.jpg,0.671757532007177,1,Latino,Male,Multiracial,Male
14,0,0,CFD-LM-214-165-N.jpg,0.663213209001697,1,Latino,Male,Multiracial,Male
14,0,0,CFD-BF-214-308-N.jpg,NaN,1,Black,Female,Multiracial,Male
14,0,0,CFD-AF-246-242-N.jpg,NaN,1,Asian,Female,Multiracial,Male
14,0,0,CFD-WM-233-106-N.jpg,NaN,1,White,Male,Multiracial,Male
14,0,0,CFD-AF-212-097-N.jpg,NaN,1,Asian,Female,Multiracial,Male
15,0,0,CFD-LM-213-061-N.jpg,NaN,1,Latino,Male,Multiracial,Male
15,0,0,CFD-WM-239-128-N.jpg,NaN,1,White,Male,Multiracial,Male
15,0,0,CFD-LM-226-175-N.jpg,NaN,1,Latino,Male,Multiracial,Male
15,0,0,CFD-BM-214-075-N.jpg,NaN,1,Black,Male,Multiracial,Male
15,0,0,CFD-LF-210-220-N.jpg,NaN,1,Latino,Female,Multiracial,Male
15,0,0,CFD-WM-029-023-N.jpg,NaN,1,White,Male,Multiracial,Male
15,0,0,CFD-LF-217-082-N.jpg,0.599212401008117,1,Latino,Female,Multiracial,Male
15,0,0,CFD-LF-217-082-N.jpg,0.574315735997516,1,Latino,Female,Multiracial,Male
15,0,0,CFD-LF-217-082-N.jpg,0.478144603999681,1,Latino,Female,Multiracial,Male
15,0,0,CFD-BF-217-189-N.jpg,NaN,1,Black,Female,Multiracial,Male
16,0,0,CFD-WM-239-128-N.jpg,NaN,1,White,Male,Multiracial,Male
16,0,0,CFD-AM-226-234-N.jpg,0.595505183999194,1,Asian,Male,Multiracial,Male
16,0,0,CFD-WF-204-038-N.jpg,NaN,1,White,Female,Multiracial,Male
16,0,0,CFD-AM-226-234-N.jpg,0.588586860001669,1,Asian,Male,Multiracial,Male
16,0,0,CFD-AM-226-234-N.jpg,0.531673385004979,1,Asian,Male,Multiracial,Male
16,0,0,CFD-LM-206-204-N.jpg,NaN,1,Latino,Male,Multiracial,Male
16,0,0,CFD-BF-243-164-N.jpg,NaN,1,Black,Female,Multiracial,Male
16,0,0,CFD-BM-230-232-N.jpg,NaN,1,Black,Male,Multiracial,Male
16,0,0,CFD-WM-256-138-N.jpg,NaN,1,White,Male,Multiracial,Male
16,0,0,CFD-AM-212-050-N.jpg,NaN,1,Asian,Male,Multiracial,Male
17,0,0,CFD-BF-233-116-N.jpg,NaN,1,Black,Female,Multiracial,Male
17,0,0,CFD-LF-242-121-N.jpg,0.650571152000339,1,Latino,Female,Multiracial,Male
17,0,0,CFD-LF-242-121-N.jpg,0.594184983012383,1,Latino,Female,Multiracial,Male
17,0,0,CFD-WM-239-128-N.jpg,NaN,1,White,Male,Multiracial,Male
17,0,0,CFD-AF-247-278-N.jpg,NaN,1,Asian,Female,Multiracial,Male
17,0,0,CFD-LF-226-174-N.jpg,NaN,1,Latino,Female,Multiracial,Male
17,0,0,CFD-LM-237-264-N.jpg,NaN,1,Latino,Male,Multiracial,Male
17,0,0,CFD-WF-028-023-N.jpg,NaN,1,White,Female,Multiracial,Male
17,0,0,CFD-BF-205-141-N.jpg,NaN,1,Black,Female,Multiracial,Male
17,0,0,CFD-LF-242-121-N.jpg,0.628131891004159,1,Latino,Female,Multiracial,Male
18,0,0,CFD-BM-217-082-N.jpg,0.529910994999227,1,Black,Male,Multiracial,Male
18,0,0,CFD-AF-242-158-N.jpg,NaN,1,Asian,Female,Multiracial,Male
18,0,0,CFD-BM-217-082-N.jpg,0.621499372005928,1,Black,Male,Multiracial,Male
18,0,0,CFD-LM-225-130-N.jpg,NaN,1,Latino,Male,Multiracial,Male
18,0,0,CFD-LF-234-139-N.jpg,NaN,1,Latino,Female,Multiracial,Male
18,0,0,CFD-BM-217-082-N.jpg,0.775282151007559,1,Black,Male,Multiracial,Male
18,0,0,CFD-BM-234-172-N.jpg,NaN,1,Black,Male,Multiracial,Male
18,0,0,CFD-LM-201-057-N.jpg,NaN,1,Latino,Male,Multiracial,Male
18,0,0,CFD-LM-226-175-N.jpg,NaN,1,Latino,Male,Multiracial,Male
18,0,0,CFD-AF-219-106-N.jpg,NaN,1,Asian,Female,Multiracial,Male
19,0,0,CFD-AF-247-278-N.jpg,0.595134086994221,1,Asian,Female,Multiracial,Male
19,0,0,CFD-AF-247-278-N.jpg,0.562975977009046,1,Asian,Female,Multiracial,Male
19,0,0,CFD-WF-011-002-N.jpg,NaN,1,White,Female,Multiracial,Male
19,0,0,CFD-AF-241-141-N.jpg,NaN,1,Asian,Female,Multiracial,Male
19,0,0,CFD-LF-239-148-N.jpg,NaN,1,Latino,Female,Multiracial,Male
19,0,0,CFD-AM-211-052-N.jpg,NaN,1,Asian,Male,Multiracial,Male
19,0,0,CFD-AF-247-278-N.jpg,0.662556966999546,1,Asian,Female,Multiracial,Male
19,0,0,CFD-BM-216-088-N.jpg,NaN,1,Black,Male,Multiracial,Male
19,0,0,CFD-BF-204-189-N.jpg,NaN,1,Black,Female,Multiracial,Male
19,0,0,CFD-BF-209-172-N.jpg,NaN,1,Black,Female,Multiracial,Male
20,0,0,CFD-WF-031-027-N.jpg,NaN,1,White,Female,Multiracial,Male
20,0,0,CFD-AF-233-190-N.jpg,NaN,1,Asian,Female,Multiracial,Male
20,0,0,CFD-BF-214-308-N.jpg,0.535239271004684,1,Black,Female,Multiracial,Male
20,0,0,CFD-AM-237-154-N.jpg,NaN,1,Asian,Male,Multiracial,Male
20,0,0,CFD-BF-214-308-N.jpg,0.608491738996236,1,Black,Female,Multiracial,Male
20,0,0,CFD-BF-214-308-N.jpg,0.568269341994892,1,Black,Female,Multiracial,Male
20,0,0,CFD-BF-051-035-N.jpg,NaN,1,Black,Female,Multiracial,Male
20,0,0,CFD-LM-226-175-N.jpg,NaN,1,Latino,Male,Multiracial,Male
20,0,0,CFD-LM-219-295-N.jpg,NaN,1,Latino,Male,Multiracial,Male
20,0,0,CFD-LM-214-165-N.jpg,NaN,1,Latino,Male,Multiracial,Male
21,0,0,CFD-WF-008-002-N.jpg,NaN,1,White,Female,Multiracial,Male
21,0,0,CFD-BM-233-285-N.jpg,NaN,1,Black,Male,Multiracial,Male
21,0,0,CFD-AM-219-101-N.jpg,NaN,1,Asian,Male,Multiracial,Male
21,0,0,CFD-BM-231-155-N.jpg,0.644932545998017,1,Black,Male,Multiracial,Male
21,0,0,CFD-BF-226-119-N.jpg,NaN,1,Black,Female,Multiracial,Male
21,0,0,CFD-BM-231-155-N.jpg,0.617172930986271,1,Black,Male,Multiracial,Male
21,0,0,CFD-WF-013-003-N.jpg,NaN,1,White,Female,Multiracial,Male
21,0,0,CFD-AF-220-107-N.jpg,NaN,1,Asian,Female,Multiracial,Male
21,0,0,CFD-BM-231-155-N.jpg,0.574723090991029,1,Black,Male,Multiracial,Male
21,0,0,CFD-LM-232-204-N.jpg,NaN,1,Latino,Male,Multiracial,Male
22,0,0,CFD-LM-203-026-N.jpg,NaN,1,Latino,Male,Multiracial,Male
22,0,0,CFD-LM-221-216-N.jpg,NaN,1,Latino,Male,Multiracial,Male
22,0,0,CFD-BM-215-155-N.jpg,NaN,1,Black,Male,Multiracial,Male
22,0,0,CFD-AM-225-102-N.jpg,0.604368521002471,1,Asian,Male,Multiracial,Male
22,0,0,CFD-AM-225-102-N.jpg,0.580246372002875,1,Asian,Male,Multiracial,Male
22,0,0,CFD-AF-241-141-N.jpg,NaN,1,Asian,Female,Multiracial,Male
22,0,0,CFD-AM-225-102-N.jpg,0.629285596005502,1,Asian,Male,Multiracial,Male
22,0,0,CFD-BF-213-188-N.jpg,NaN,1,Black,Female,Multiracial,Male
22,0,0,CFD-LF-214-090-N.jpg,NaN,1,Latino,Female,Multiracial,Male
22,0,0,CFD-LF-225-164-N.jpg,NaN,1,Latino,Female,Multiracial,Male
23,0,0,CFD-WF-027-003-N.jpg,NaN,1,White,Female,Multiracial,Male
23,0,0,CFD-BM-231-155-N.jpg,0.611524152001948,1,Black,Male,Multiracial,Male
23,0,0,CFD-BM-212-117-N.jpg,NaN,1,Black,Male,Multiracial,Male
23,0,0,CFD-WF-031-027-N.jpg,NaN,1,White,Female,Multiracial,Male
23,0,0,CFD-BF-236-177-N.jpg,NaN,1,Black,Female,Multiracial,Male
23,0,0,CFD-WF-007-001-N.jpg,NaN,1,White,Female,Multiracial,Male
23,0,0,CFD-LM-215-247-N.jpg,NaN,1,Latino,Male,Multiracial,Male
23,0,0,CFD-BM-231-155-N.jpg,0.609336115012411,1,Black,Male,Multiracial,Male
23,0,0,CFD-LM-213-061-N.jpg,NaN,1,Latino,Male,Multiracial,Male
23,0,0,CFD-BM-231-155-N.jpg,0.619910314999288,1,Black,Male,Multiracial,Male
24,0,0,CFD-LM-209-111-N.jpg,NaN,1,Latino,Male,Multiracial,Male
24,0,0,CFD-LM-207-004-N.jpg,NaN,1,Latino,Male,Multiracial,Male
24,0,0,CFD-LF-215-157-N.jpg,NaN,1,Latino,Female,Multiracial,Male
24,0,0,CFD-BM-238-242-N.jpg,0.619293267009198,1,Black,Male,Multiracial,Male
24,0,0,CFD-LF-204-133-N.jpg,NaN,1,Latino,Female,Multiracial,Male
24,0,0,CFD-LF-213-079-N.jpg,NaN,1,Latino,Female,Multiracial,Male
24,0,0,CFD-LM-233-171-N.jpg,NaN,1,Latino,Male,Multiracial,Male
24,0,0,CFD-BM-238-242-N.jpg,0.607394457008922,1,Black,Male,Multiracial,Male
24,0,0,CFD-WM-239-128-N.jpg,NaN,1,White,Male,Multiracial,Male
24,0,0,CFD-BM-238-242-N.jpg,0.835705757999676,1,Black,Male,Multiracial,Male
25,2,1,CFD-BM-205-001-N_degraded.jpg,NaN,1,Black,Male,Multiracial,Male
25,2,1,CFD-LM-219-295-N_degraded.jpg,NaN,1,Latino,Male,Multiracial,Male
25,2,1,CFD-BM-205-001-N_degraded.jpg,0.531083793001017,1,Black,Male,Multiracial,Male
25,2,1,CFD-LM-243-075-N_degraded.jpg,NaN,1,Latino,Male,Multiracial,Male
25,2,1,CFD-LM-219-295-N_degraded.jpg,NaN,1,Latino,Male,Multiracial,Male
25,2,1,CFD-LF-205-100-N_degraded.jpg,NaN,1,Latino,Female,Multiracial,Male
25,2,1,CFD-BF-234-167-N_degraded.jpg,NaN,1,Black,Female,Multiracial,Male
25,2,1,CFD-LF-205-100-N_degraded.jpg,0.574600742998882,1,Latino,Female,Multiracial,Male
25,2,1,CFD-AM-210-035-N_degraded.jpg,NaN,1,Asian,Male,Multiracial,Male
25,2,1,CFD-LF-227-054-N_degraded.jpg,NaN,1,Latino,Female,Multiracial,Male
26,2,1,CFD-AM-245-111-N_degraded.jpg,NaN,1,Asian,Male,Multiracial,Male
26,2,1,CFD-BM-224-073-N_degraded.jpg,NaN,1,Black,Male,Multiracial,Male
26,2,1,CFD-AM-245-111-N_degraded.jpg,0.654215072005172,1,Asian,Male,Multiracial,Male
26,2,1,CFD-LM-224-162-N_degraded.jpg,NaN,1,Latino,Male,Multiracial,Male
26,2,1,CFD-BF-239-180-N_degraded.jpg,NaN,1,Black,Female,Multiracial,Male
26,2,1,CFD-LM-224-162-N_degraded.jpg,0.610729530002573,1,Latino,Male,Multiracial,Male
26,2,1,CFD-LM-240-013-N_degraded.jpg,NaN,1,Latino,Male,Multiracial,Male
26,2,1,CFD-BF-239-180-N_degraded.jpg,0.783713466997142,0,Black,Female,Multiracial,Male
26,2,1,CFD-BM-204-003-N_degraded.jpg,NaN,1,Black,Male,Multiracial,Male
26,2,1,CFD-LM-219-295-N_degraded.jpg,NaN,1,Latino,Male,Multiracial,Male
27,2,1,CFD-BF-230-189-N_degraded.jpg,NaN,1,Black,Female,Multiracial,Male
27,2,1,CFD-BM-217-082-N_degraded.jpg,NaN,1,Black,Male,Multiracial,Male
27,2,1,CFD-BF-206-143-N_degraded.jpg,0.955947087000823,0,Black,Female,Multiracial,Male
27,2,1,CFD-BM-217-082-N_degraded.jpg,0.692471211994416,1,Black,Male,Multiracial,Male
27,2,1,CFD-BF-206-143-N_degraded.jpg,NaN,0,Black,Female,Multiracial,Male
27,2,1,CFD-AM-228-214-N_degraded.jpg,NaN,1,Asian,Male,Multiracial,Male
27,2,1,CFD-WF-025-019-N_degraded.jpg,NaN,1,White,Female,Multiracial,Male
27,2,1,CFD-AM-228-214-N_degraded.jpg,0.581143496005097,1,Asian,Male,Multiracial,Male
27,2,1,CFD-WM-256-138-N_degraded.jpg,NaN,1,White,Male,Multiracial,Male
27,2,1,CFD-WF-246-087-N_degraded.jpg,NaN,1,White,Female,Multiracial,Male
28,2,1,CFD-WF-024-003-N_degraded.jpg,NaN,1,White,Female,Multiracial,Male
28,2,1,CFD-WF-002-004-N_degraded.jpg,NaN,1,White,Female,Multiracial,Male
28,2,1,CFD-BM-045-004-N_degraded.jpg,NaN,1,Black,Male,Multiracial,Male
28,2,1,CFD-AM-235-241-N_degraded.jpg,NaN,1,Asian,Male,Multiracial,Male
28,2,1,CFD-BM-045-004-N_degraded.jpg,0.69347893500526,1,Black,Male,Multiracial,Male
28,2,1,CFD-WF-014-002-N_degraded.jpg,NaN,1,White,Female,Multiracial,Male
28,2,1,CFD-AM-235-241-N_degraded.jpg,NaN,1,Asian,Male,Multiracial,Male
28,2,1,CFD-WF-014-002-N_degraded.jpg,0.532739736998337,1,White,Female,Multiracial,Male
28,2,1,CFD-WM-028-003-N_degraded.jpg,NaN,1,White,Male,Multiracial,Male
28,2,1,CFD-BF-226-119-N_degraded.jpg,NaN,1,Black,Female,Multiracial,Male
29,2,1,CFD-WF-008-002-N_degraded.jpg,NaN,1,White,Female,Multiracial,Male
29,2,1,CFD-AM-217-085-N_degraded.jpg,NaN,1,Asian,Male,Multiracial,Male
29,2,1,CFD-WF-008-002-N_degraded.jpg,NaN,0,White,Female,Multiracial,Male
29,2,1,CFD-AM-217-085-N_degraded.jpg,0.504155966991675,1,Asian,Male,Multiracial,Male
29,2,1,CFD-WF-008-002-N_degraded.jpg,0.89596407400677,1,White,Female,Multiracial,Male
29,2,1,CFD-WF-209-052-N_degraded.jpg,NaN,1,White,Female,Multiracial,Male
29,2,1,CFD-WM-245-123-N_degraded.jpg,NaN,1,White,Male,Multiracial,Male
29,2,1,CFD-LF-203-066-N_degraded.jpg,NaN,1,Latino,Female,Multiracial,Male
29,2,1,CFD-WF-232-161-N_degraded.jpg,NaN,1,White,Female,Multiracial,Male
29,2,1,CFD-LF-228-125-N_degraded.jpg,NaN,1,Latino,Female,Multiracial,Male
30,2,1,CFD-LM-248-089-N_degraded.jpg,NaN,1,Latino,Male,Multiracial,Male
30,2,1,CFD-WF-029-002-N_degraded.jpg,NaN,1,White,Female,Multiracial,Male
30,2,1,CFD-LM-248-089-N_degraded.jpg,0.612876580999,1,Latino,Male,Multiracial,Male
30,2,1,CFD-WF-015-006-N_degraded.jpg,NaN,1,White,Female,Multiracial,Male
30,2,1,CFD-BF-223-250-N_degraded.jpg,NaN,1,Black,Female,Multiracial,Male
30,2,1,CFD-WF-015-006-N_degraded.jpg,0.56997109799704,1,White,Female,Multiracial,Male
30,2,1,CFD-LF-210-220-N_degraded.jpg,NaN,1,Latino,Female,Multiracial,Male
30,2,1,CFD-BF-223-250-N_degraded.jpg,0.737194914996508,0,Black,Female,Multiracial,Male
30,2,1,CFD-AF-240-206-N_degraded.jpg,NaN,1,Asian,Female,Multiracial,Male
30,2,1,CFD-AF-248-148-N_degraded.jpg,0.772044355006074,0,Asian,Female,Multiracial,Male
31,2,1,CFD-AM-226-234-N_degraded.jpg,NaN,1,Asian,Male,Multiracial,Male
31,2,1,CFD-BM-243-218-N_degraded.jpg,NaN,1,Black,Male,Multiracial,Male
31,2,1,CFD-AM-209-048-N_degraded.jpg,NaN,1,Asian,Male,Multiracial,Male
31,2,1,CFD-AF-228-173-N_degraded.jpg,NaN,1,Asian,Female,Multiracial,Male
31,2,1,CFD-WF-203-229-N_degraded.jpg,NaN,1,White,Female,Multiracial,Male
31,2,1,CFD-AF-228-173-N_degraded.jpg,0.874043883013655,1,Asian,Female,Multiracial,Male
31,2,1,CFD-AF-228-173-N_degraded.jpg,NaN,1,Asian,Female,Multiracial,Male
31,2,1,CFD-AF-228-173-N_degraded.jpg,0.480765625005006,1,Asian,Female,Multiracial,Male
31,2,1,CFD-LF-218-072-N_degraded.jpg,NaN,1,Latino,Female,Multiracial,Male
31,2,1,CFD-WM-019-003-N_degraded.jpg,NaN,1,White,Male,Multiracial,Male
32,2,1,CFD-WM-002-009-N_degraded.jpg,NaN,1,White,Male,Multiracial,Male
32,2,1,CFD-WM-248-036-N_degraded.jpg,NaN,1,White,Male,Multiracial,Male
32,2,1,CFD-AF-200-228-N_degraded.jpg,NaN,1,Asian,Female,Multiracial,Male
32,2,1,CFD-WM-248-036-N_degraded.jpg,0.488923869997961,1,White,Male,Multiracial,Male
32,2,1,CFD-WF-209-052-N_degraded.jpg,NaN,1,White,Female,Multiracial,Male
32,2,1,CFD-AF-200-228-N_degraded.jpg,0.781847098987782,0,Asian,Female,Multiracial,Male
32,2,1,CFD-LF-238-154-N_degraded.jpg,NaN,1,Latino,Female,Multiracial,Male
32,2,1,CFD-AF-200-228-N_degraded.jpg,0.765192552004009,1,Asian,Female,Multiracial,Male
32,2,1,CFD-WM-240-125-N_degraded.jpg,NaN,1,White,Male,Multiracial,Male
32,2,1,CFD-LF-206-078-N_degraded.jpg,NaN,1,Latino,Female,Multiracial,Male
33,2,1,CFD-BM-245-164-N_degraded.jpg,NaN,1,Black,Male,Multiracial,Male
33,2,1,CFD-WM-012-001-N_degraded.jpg,NaN,1,White,Male,Multiracial,Male
33,2,1,CFD-BM-245-164-N_degraded.jpg,0.569186823006021,1,Black,Male,Multiracial,Male
33,2,1,CFD-LF-225-164-N_degraded.jpg,NaN,1,Latino,Female,Multiracial,Male
33,2,1,CFD-WF-202-056-N_degraded.jpg,NaN,1,White,Female,Multiracial,Male
33,2,1,CFD-LM-240-013-N_degraded.jpg,NaN,1,Latino,Male,Multiracial,Male
33,2,1,CFD-WF-202-056-N_degraded.jpg,0.721581727004377,1,White,Female,Multiracial,Male
33,2,1,CFD-WF-202-056-N_degraded.jpg,NaN,1,White,Female,Multiracial,Male
33,2,1,CFD-LF-228-125-N_degraded.jpg,NaN,1,Latino,Female,Multiracial,Male
33,2,1,CFD-AM-245-111-N_degraded.jpg,0.970813865002128,0,Asian,Male,Multiracial,Male
34,2,1,CFD-LM-215-247-N_degraded.jpg,NaN,1,Latino,Male,Multiracial,Male
34,2,1,CFD-LM-239-075-N_degraded.jpg,NaN,1,Latino,Male,Multiracial,Male
34,2,1,CFD-LM-215-247-N_degraded.jpg,0.581940984004177,1,Latino,Male,Multiracial,Male
34,2,1,CFD-LM-215-247-N_degraded.jpg,NaN,1,Latino,Male,Multiracial,Male
34,2,1,CFD-WM-004-010-N_degraded.jpg,NaN,1,White,Male,Multiracial,Male
34,2,1,CFD-WM-239-128-N_degraded.jpg,NaN,1,White,Male,Multiracial,Male
34,2,1,CFD-WM-004-010-N_degraded.jpg,0.894196677996661,1,White,Male,Multiracial,Male
34,2,1,CFD-WF-005-010-N_degraded.jpg,NaN,1,White,Female,Multiracial,Male
34,2,1,CFD-LF-226-174-N_degraded.jpg,NaN,1,Latino,Female,Multiracial,Male
34,2,1,CFD-WM-018-002-N_degraded.jpg,NaN,1,White,Male,Multiracial,Male
35,2,1,CFD-WF-211-001-N_degraded.jpg,NaN,1,White,Female,Multiracial,Male
35,2,1,CFD-BM-239-136-N_degraded.jpg,NaN,1,Black,Male,Multiracial,Male
35,2,1,CFD-WF-211-001-N_degraded.jpg,0.591147700994043,1,White,Female,Multiracial,Male
35,2,1,CFD-WF-203-229-N_degraded.jpg,NaN,1,White,Female,Multiracial,Male
35,2,1,CFD-AM-232-251-N_degraded.jpg,NaN,1,Asian,Male,Multiracial,Male
35,2,1,CFD-WF-203-229-N_degraded.jpg,0.904359586013015,1,White,Female,Multiracial,Male
35,2,1,CFD-LF-216-121-N_degraded.jpg,NaN,1,Latino,Female,Multiracial,Male
35,2,1,CFD-AM-232-251-N_degraded.jpg,NaN,1,Asian,Male,Multiracial,Male
35,2,1,CFD-LF-243-175-N_degraded.jpg,NaN,1,Latino,Female,Multiracial,Male
35,2,1,CFD-AF-219-106-N_degraded.jpg,NaN,1,Asian,Female,Multiracial,Male
36,2,1,CFD-BM-242-233-N_degraded.jpg,NaN,1,Black,Male,Multiracial,Male
36,2,1,CFD-AM-227-184-N_degraded.jpg,NaN,1,Asian,Male,Multiracial,Male
36,2,1,CFD-AF-253-130-N_degraded.jpg,NaN,1,Asian,Female,Multiracial,Male
36,2,1,CFD-AM-227-184-N_degraded.jpg,0.53784597099002,1,Asian,Male,Multiracial,Male
36,2,1,CFD-AM-231-136-N_degraded.jpg,NaN,1,Asian,Male,Multiracial,Male
36,2,1,CFD-AM-227-184-N_degraded.jpg,0.887932907004142,1,Asian,Male,Multiracial,Male
36,2,1,CFD-AM-209-048-N_degraded.jpg,NaN,1,Asian,Male,Multiracial,Male
36,2,1,CFD-AM-231-136-N_degraded.jpg,0.80495289999817,0,Asian,Male,Multiracial,Male
36,2,1,CFD-AM-225-102-N_degraded.jpg,NaN,1,Asian,Male,Multiracial,Male
36,2,1,CFD-AF-223-183-N_degraded.jpg,NaN,1,Asian,Female,Multiracial,Male
37,2,0,CFD-LM-228-188-N.jpg,NaN,1,Latino,Male,Multiracial,Male
37,2,0,CFD-BM-245-164-N.jpg,NaN,1,Black,Male,Multiracial,Male
37,2,0,CFD-LF-211-003-N.jpg,NaN,1,Latino,Female,Multiracial,Male
37,2,0,CFD-BM-245-164-N.jpg,0.508579573011957,1,Black,Male,Multiracial,Male
37,2,0,CFD-BM-245-164-N.jpg,NaN,1,Black,Male,Multiracial,Male
37,2,0,CFD-BM-224-073-N.jpg,0.425386061004247,0,Black,Male,Multiracial,Male
37,2,0,CFD-AF-253-130-N.jpg,NaN,1,Asian,Female,Multiracial,Male
37,2,0,CFD-BM-240-207-N.jpg,NaN,1,Black,Male,Multiracial,Male
37,2,0,CFD-AF-253-130-N.jpg,0.616404785992927,1,Asian,Female,Multiracial,Male
37,2,0,CFD-WF-202-056-N.jpg,NaN,1,White,Female,Multiracial,Male
38,2,0,CFD-LF-223-064-N.jpg,NaN,1,Latino,Female,Multiracial,Male
38,2,0,CFD-LM-207-004-N.jpg,NaN,1,Latino,Male,Multiracial,Male
38,2,0,CFD-LF-223-064-N.jpg,0.586035261992947,1,Latino,Female,Multiracial,Male
38,2,0,CFD-LF-223-064-N.jpg,NaN,1,Latino,Female,Multiracial,Male
38,2,0,CFD-BM-214-075-N.jpg,NaN,1,Black,Male,Multiracial,Male
38,2,0,CFD-AM-231-136-N.jpg,NaN,1,Asian,Male,Multiracial,Male
38,2,0,CFD-BM-214-075-N.jpg,0.448529500994482,1,Black,Male,Multiracial,Male
38,2,0,CFD-WM-028-003-N.jpg,NaN,1,White,Male,Multiracial,Male
38,2,0,CFD-AF-238-185-N.jpg,NaN,1,Asian,Female,Multiracial,Male
38,2,0,CFD-AF-246-242-N.jpg,NaN,1,Asian,Female,Multiracial,Male
39,2,0,CFD-LF-226-174-N.jpg,NaN,1,Latino,Female,Multiracial,Male
39,2,0,CFD-AF-227-207-N.jpg,NaN,1,Asian,Female,Multiracial,Male
39,2,0,CFD-WM-023-001-N.jpg,NaN,1,White,Male,Multiracial,Male
39,2,0,CFD-LM-238-129-N.jpg,NaN,1,Latino,Male,Multiracial,Male
39,2,0,CFD-LM-240-013-N.jpg,NaN,1,Latino,Male,Multiracial,Male
39,2,0,CFD-AF-231-357-N.jpg,NaN,1,Asian,Female,Multiracial,Male
39,2,0,CFD-LM-240-013-N.jpg,0.928718072012998,1,Latino,Male,Multiracial,Male
39,2,0,CFD-AF-231-357-N.jpg,NaN,0,Asian,Female,Multiracial,Male
39,2,0,CFD-LM-240-013-N.jpg,0.968725120997988,1,Latino,Male,Multiracial,Male
39,2,0,CFD-WF-205-006-N.jpg,NaN,1,White,Female,Multiracial,Male
40,2,0,CFD-WF-015-006-N.jpg,NaN,1,White,Female,Multiracial,Male
40,2,0,CFD-LF-204-133-N.jpg,NaN,1,Latino,Female,Multiracial,Male
40,2,0,CFD-AM-220-134-N.jpg,NaN,1,Asian,Male,Multiracial,Male
40,2,0,CFD-LF-204-133-N.jpg,0.912600499010296,1,Latino,Female,Multiracial,Male
40,2,0,CFD-AM-220-134-N.jpg,NaN,0,Asian,Male,Multiracial,Male
40,2,0,CFD-LF-204-133-N.jpg,NaN,0,Latino,Female,Multiracial,Male
40,2,0,CFD-BM-206-114-N.jpg,NaN,1,Black,Male,Multiracial,Male
40,2,0,CFD-AM-204-122-N.jpg,NaN,1,Asian,Male,Multiracial,Male
40,2,0,CFD-AF-218-157-N.jpg,NaN,1,Asian,Female,Multiracial,Male
40,2,0,CFD-WM-022-001-N.jpg,NaN,1,White,Male,Multiracial,Male
41,2,0,CFD-BM-234-172-N.jpg,NaN,1,Black,Male,Multiracial,Male
41,2,0,CFD-LM-210-156-N.jpg,NaN,1,Latino,Male,Multiracial,Male
41,2,0,CFD-BM-234-172-N.jpg,0.529456882999511,1,Black,Male,Multiracial,Male
41,2,0,CFD-LM-210-156-N.jpg,0.737805843004026,1,Latino,Male,Multiracial,Male
41,2,0,CFD-AF-217-155-N.jpg,NaN,1,Asian,Female,Multiracial,Male
41,2,0,CFD-WF-201-156-N.jpg,NaN,1,White,Female,Multiracial,Male
41,2,0,CFD-AF-217-155-N.jpg,0.534327130997553,1,Asian,Female,Multiracial,Male
41,2,0,CFD-LF-219-223-N.jpg,NaN,1,Latino,Female,Multiracial,Male
41,2,0,CFD-WF-204-038-N.jpg,NaN,1,White,Female,Multiracial,Male
41,2,0,CFD-BF-234-167-N.jpg,NaN,1,Black,Female,Multiracial,Male
42,2,0,CFD-LM-216-082-N.jpg,NaN,1,Latino,Male,Multiracial,Male
42,2,0,CFD-BF-229-179-N.jpg,NaN,1,Black,Female,Multiracial,Male
42,2,0,CFD-WM-010-001-N.jpg,NaN,1,White,Male,Multiracial,Male
42,2,0,CFD-BF-229-179-N.jpg,0.649870703011402,1,Black,Female,Multiracial,Male
42,2,0,CFD-WM-010-001-N.jpg,0.616462894991855,1,White,Male,Multiracial,Male
42,2,0,CFD-AF-251-093-N.jpg,NaN,1,Asian,Female,Multiracial,Male
42,2,0,CFD-WM-240-125-N.jpg,NaN,1,White,Male,Multiracial,Male
42,2,0,CFD-LF-211-003-N.jpg,NaN,1,Latino,Female,Multiracial,Male
42,2,0,CFD-WM-240-125-N.jpg,0.919482242999948,1,White,Male,Multiracial,Male
42,2,0,CFD-LM-228-188-N.jpg,NaN,1,Latino,Male,Multiracial,Male
43,2,0,CFD-BM-233-285-N.jpg,NaN,1,Black,Male,Multiracial,Male
43,2,0,CFD-WF-006-002-N.jpg,NaN,1,White,Female,Multiracial,Male
43,2,0,CFD-WF-025-019-N.jpg,NaN,1,White,Female,Multiracial,Male
43,2,0,CFD-WF-006-002-N.jpg,0.701760835989262,1,White,Female,Multiracial,Male
43,2,0,CFD-AF-244-168-N.jpg,NaN,1,Asian,Female,Multiracial,Male
43,2,0,CFD-WF-025-019-N.jpg,0.835042355000041,0,White,Female,Multiracial,Male
43,2,0,CFD-WF-025-019-N.jpg,NaN,1,White,Female,Multiracial,Male
43,2,0,CFD-AM-220-134-N.jpg,NaN,1,Asian,Male,Multiracial,Male
43,2,0,CFD-BF-238-190-N.jpg,NaN,1,Black,Female,Multiracial,Male
43,2,0,CFD-AF-229-160-N.jpg,NaN,1,Asian,Female,Multiracial,Male
44,2,0,CFD-AM-233-236-N.jpg,NaN,1,Asian,Male,Multiracial,Male
44,2,0,CFD-WM-013-001-N.jpg,NaN,1,White,Male,Multiracial,Male
44,2,0,CFD-LM-219-295-N.jpg,NaN,1,Latino,Male,Multiracial,Male
44,2,0,CFD-WM-013-001-N.jpg,0.538287073009997,1,White,Male,Multiracial,Male
44,2,0,CFD-BM-233-285-N.jpg,NaN,1,Black,Male,Multiracial,Male
44,2,0,CFD-WM-256-138-N.jpg,NaN,1,White,Male,Multiracial,Male
44,2,0,CFD-BM-233-285-N.jpg,0.516489725996507,1,Black,Male,Multiracial,Male
44,2,0,CFD-BM-233-285-N.jpg,NaN,1,Black,Male,Multiracial,Male
44,2,0,CFD-AF-245-143-N.jpg,NaN,1,Asian,Female,Multiracial,Male
44,2,0,CFD-LM-241-125-N.jpg,NaN,1,Latino,Male,Multiracial,Male
45,2,0,CFD-LF-234-139-N.jpg,NaN,1,Latino,Female,Multiracial,Male
45,2,0,CFD-BF-217-189-N.jpg,NaN,1,Black,Female,Multiracial,Male
45,2,0,CFD-LF-234-139-N.jpg,0.537477764009964,1,Latino,Female,Multiracial,Male
45,2,0,CFD-LF-234-139-N.jpg,NaN,1,Latino,Female,Multiracial,Male
45,2,0,CFD-AM-205-153-N.jpg,NaN,1,Asian,Male,Multiracial,Male
45,2,0,CFD-LF-234-139-N.jpg,0.638062415993772,1,Latino,Female,Multiracial,Male
45,2,0,CFD-AM-233-236-N.jpg,NaN,1,Asian,Male,Multiracial,Male
45,2,0,CFD-WM-004-010-N.jpg,NaN,1,White,Male,Multiracial,Male
45,2,0,CFD-AF-234-208-N.jpg,NaN,1,Asian,Female,Multiracial,Male
45,2,0,CFD-AM-243-212-N.jpg,NaN,1,Asian,Male,Multiracial,Male
46,2,0,CFD-WM-011-002-N.jpg,0.497753696996369,0,White,Male,Multiracial,Male
46,2,0,CFD-AM-228-214-N.jpg,NaN,1,Asian,Male,Multiracial,Male
46,2,0,CFD-WM-011-002-N.jpg,0.466274553997209,1,White,Male,Multiracial,Male
46,2,0,CFD-AF-242-158-N.jpg,NaN,1,Asian,Female,Multiracial,Male
46,2,0,CFD-AM-228-214-N.jpg,NaN,1,Asian,Male,Multiracial,Male
46,2,0,CFD-AM-228-214-N.jpg,NaN,1,Asian,Male,Multiracial,Male
46,2,0,CFD-BF-219-137-N.jpg,NaN,1,Black,Female,Multiracial,Male
46,2,0,CFD-BM-228-145-N.jpg,NaN,1,Black,Male,Multiracial,Male
46,2,0,CFD-AF-245-143-N.jpg,NaN,1,Asian,Female,Multiracial,Male
46,2,0,CFD-WM-242-011-N.jpg,NaN,1,White,Male,Multiracial,Male
47,2,0,CFD-BF-217-189-N.jpg,NaN,1,Black,Female,Multiracial,Male
47,2,0,CFD-AF-225-141-N.jpg,NaN,1,Asian,Female,Multiracial,Male
47,2,0,CFD-LF-200-058-N.jpg,NaN,1,Latino,Female,Multiracial,Male
47,2,0,CFD-WF-002-004-N.jpg,NaN,1,White,Female,Multiracial,Male
47,2,0,CFD-LF-244-096-N.jpg,NaN,1,Latino,Female,Multiracial,Male
47,2,0,CFD-WF-002-004-N.jpg,0.634825778994127,1,White,Female,Multiracial,Male
47,2,0,CFD-WF-002-004-N.jpg,NaN,1,White,Female,Multiracial,Male
47,2,0,CFD-AF-240-206-N.jpg,NaN,1,Asian,Female,Multiracial,Male
47,2,0,CFD-WF-002-004-N.jpg,0.538459755989606,1,White,Female,Multiracial,Male
47,2,0,CFD-AF-237-223-N.jpg,NaN,1,Asian,Female,Multiracial,Male
48,2,0,CFD-AF-248-148-N.jpg,NaN,1,Asian,Female,Multiracial,Male
48,2,0,CFD-WF-029-002-N.jpg,NaN,1,White,Female,Multiracial,Male
48,2,0,CFD-BF-232-187-N.jpg,NaN,1,Black,Female,Multiracial,Male
48,2,0,CFD-BF-214-308-N.jpg,NaN,1,Black,Female,Multiracial,Male
48,2,0,CFD-LM-243-075-N.jpg,NaN,1,Latino,Male,Multiracial,Male
48,2,0,CFD-BF-214-308-N.jpg,0.411155777997919,1,Black,Female,Multiracial,Male
48,2,0,CFD-BF-214-308-N.jpg,NaN,1,Black,Female,Multiracial,Male
48,2,0,CFD-BF-214-308-N.jpg,0.84226779898745,1,Black,Female,Multiracial,Male
48,2,0,CFD-AF-210-050-N.jpg,NaN,1,Asian,Female,Multiracial,Male
48,2,0,CFD-AF-226-251-N.jpg,NaN,1,Asian,Female,Multiracial,Male
49,1,1,CFD-LF-238-154-N_degraded.jpg,NaN,1,Latino,Female,Multiracial,Male
49,1,1,CFD-LF-238-154-N_degraded.jpg,0.460024816988152,1,Latino,Female,Multiracial,Male
49,1,1,CFD-LM-244-068-N_degraded.jpg,NaN,1,Latino,Male,Multiracial,Male
49,1,1,CFD-AF-246-242-N_degraded.jpg,NaN,1,Asian,Female,Multiracial,Male
49,1,1,CFD-AM-201-076-N_degraded.jpg,NaN,1,Asian,Male,Multiracial,Male
49,1,1,CFD-LF-215-157-N_degraded.jpg,NaN,1,Latino,Female,Multiracial,Male
49,1,1,CFD-BM-238-242-N_degraded.jpg,NaN,1,Black,Male,Multiracial,Male
49,1,1,CFD-BM-238-242-N_degraded.jpg,0.555523126997286,1,Black,Male,Multiracial,Male
49,1,1,CFD-BM-238-242-N_degraded.jpg,0.756136495008832,1,Black,Male,Multiracial,Male
49,1,1,CFD-WM-001-014-N_degraded.jpg,NaN,1,White,Male,Multiracial,Male
50,1,1,CFD-AF-235-170-N_degraded.jpg,NaN,1,Asian,Female,Multiracial,Male
50,1,1,CFD-AF-235-170-N_degraded.jpg,0.587396076996811,1,Asian,Female,Multiracial,Male
50,1,1,CFD-AF-235-170-N_degraded.jpg,0.659241986009874,1,Asian,Female,Multiracial,Male
50,1,1,CFD-AF-240-206-N_degraded.jpg,NaN,1,Asian,Female,Multiracial,Male
50,1,1,CFD-WF-018-017-N_degraded.jpg,NaN,1,White,Female,Multiracial,Male
50,1,1,CFD-WM-026-001-N_degraded.jpg,NaN,1,White,Male,Multiracial,Male
50,1,1,CFD-WM-026-001-N_degraded.jpg,0.859480786006316,1,White,Male,Multiracial,Male
50,1,1,CFD-LM-221-216-N_degraded.jpg,NaN,1,Latino,Male,Multiracial,Male
50,1,1,CFD-AM-203-086-N_degraded.jpg,NaN,1,Asian,Male,Multiracial,Male
50,1,1,CFD-LM-233-171-N_degraded.jpg,0.779746943007922,0,Latino,Male,Multiracial,Male
51,1,1,CFD-BF-229-179-N_degraded.jpg,NaN,1,Black,Female,Multiracial,Male
51,1,1,CFD-BF-229-179-N_degraded.jpg,0.444197798991809,1,Black,Female,Multiracial,Male
51,1,1,CFD-LM-212-143-N_degraded.jpg,NaN,1,Latino,Male,Multiracial,Male
51,1,1,CFD-LM-247-095-N_degraded.jpg,NaN,1,Latino,Male,Multiracial,Male
51,1,1,CFD-LF-228-125-N_degraded.jpg,NaN,1,Latino,Female,Multiracial,Male
51,1,1,CFD-LM-241-125-N_degraded.jpg,NaN,1,Latino,Male,Multiracial,Male
51,1,1,CFD-AM-241-287-N_degraded.jpg,NaN,1,Asian,Male,Multiracial,Male
51,1,1,CFD-LM-238-129-N_degraded.jpg,NaN,1,Latino,Male,Multiracial,Male
51,1,1,CFD-LM-238-129-N_degraded.jpg,0.396858399006305,1,Latino,Male,Multiracial,Male
51,1,1,CFD-LM-238-129-N_degraded.jpg,0.700579058990115,1,Latino,Male,Multiracial,Male
52,1,1,CFD-BF-242-154-N_degraded.jpg,NaN,1,Black,Female,Multiracial,Male
52,1,1,CFD-BF-242-154-N_degraded.jpg,0.574411631998373,1,Black,Female,Multiracial,Male
52,1,1,CFD-BF-242-154-N_degraded.jpg,0.54197276099876,1,Black,Female,Multiracial,Male
52,1,1,CFD-BF-243-164-N_degraded.jpg,NaN,1,Black,Female,Multiracial,Male
52,1,1,CFD-LM-223-175-N_degraded.jpg,NaN,1,Latino,Male,Multiracial,Male
52,1,1,CFD-LF-233-277-N_degraded.jpg,NaN,1,Latino,Female,Multiracial,Male
52,1,1,CFD-WF-014-002-N_degraded.jpg,NaN,1,White,Female,Multiracial,Male
52,1,1,CFD-BF-241-222-N_degraded.jpg,NaN,1,Black,Female,Multiracial,Male
52,1,1,CFD-BF-241-222-N_degraded.jpg,0.962856819009176,1,Black,Female,Multiracial,Male
52,1,1,CFD-AM-230-150-N_degraded.jpg,NaN,1,Asian,Male,Multiracial,Male
53,1,1,CFD-BM-203-001-N_degraded.jpg,NaN,1,Black,Male,Multiracial,Male
53,1,1,CFD-BM-203-001-N_degraded.jpg,0.498975021007936,1,Black,Male,Multiracial,Male
53,1,1,CFD-LF-218-072-N_degraded.jpg,NaN,1,Latino,Female,Multiracial,Male
53,1,1,CFD-LF-218-072-N_degraded.jpg,NaN,0,Latino,Female,Multiracial,Male
53,1,1,CFD-LF-218-072-N_degraded.jpg,0.617854376003379,1,Latino,Female,Multiracial,Male
53,1,1,CFD-AM-239-147-N_degraded.jpg,NaN,1,Asian,Male,Multiracial,Male
53,1,1,CFD-LM-207-004-N_degraded.jpg,NaN,1,Latino,Male,Multiracial,Male
53,1,1,CFD-BM-238-242-N_degraded.jpg,NaN,1,Black,Male,Multiracial,Male
53,1,1,CFD-AM-210-035-N_degraded.jpg,NaN,1,Asian,Male,Multiracial,Male
53,1,1,CFD-WF-008-002-N_degraded.jpg,NaN,1,White,Female,Multiracial,Male
54,1,1,CFD-LF-211-003-N_degraded.jpg,NaN,1,Latino,Female,Multiracial,Male
54,1,1,CFD-AF-241-141-N_degraded.jpg,NaN,1,Asian,Female,Multiracial,Male
54,1,1,CFD-BM-210-148-N_degraded.jpg,NaN,1,Black,Male,Multiracial,Male
54,1,1,CFD-AF-246-242-N_degraded.jpg,NaN,1,Asian,Female,Multiracial,Male
54,1,1,CFD-AF-246-242-N_degraded.jpg,0.830484798003454,1,Asian,Female,Multiracial,Male
54,1,1,CFD-AF-248-148-N_degraded.jpg,NaN,1,Asian,Female,Multiracial,Male
54,1,1,CFD-AF-248-148-N_degraded.jpg,0.455117426012293,1,Asian,Female,Multiracial,Male
54,1,1,CFD-WF-011-002-N_degraded.jpg,NaN,1,White,Female,Multiracial,Male
54,1,1,CFD-BF-213-188-N_degraded.jpg,NaN,1,Black,Female,Multiracial,Male
54,1,1,CFD-BF-213-188-N_degraded.jpg,0.90304623299744,1,Black,Female,Multiracial,Male
55,1,1,CFD-LM-228-188-N_degraded.jpg,NaN,1,Latino,Male,Multiracial,Male
55,1,1,CFD-WF-003-003-N_degraded.jpg,NaN,1,White,Female,Multiracial,Male
55,1,1,CFD-WF-003-003-N_degraded.jpg,0.784087959997123,1,White,Female,Multiracial,Male
55,1,1,CFD-BM-219-141-N_degraded.jpg,NaN,1,Black,Male,Multiracial,Male
55,1,1,CFD-LM-212-143-N_degraded.jpg,NaN,1,Latino,Male,Multiracial,Male
55,1,1,CFD-LM-212-143-N_degraded.jpg,0.643332943000132,1,Latino,Male,Multiracial,Male
55,1,1,CFD-AF-248-148-N_degraded.jpg,NaN,1,Asian,Female,Multiracial,Male
55,1,1,CFD-WM-021-001-N_degraded.jpg,NaN,1,White,Male,Multiracial,Male
55,1,1,CFD-WM-021-001-N_degraded.jpg,0.824559642991517,1,White,Male,Multiracial,Male
55,1,1,CFD-AM-224-126-N_degraded.jpg,NaN,1,Asian,Male,Multiracial,Male
56,1,1,CFD-WF-008-002-N_degraded.jpg,NaN,1,White,Female,Multiracial,Male
56,1,1,CFD-WF-008-002-N_degraded.jpg,0.553376668991405,1,White,Female,Multiracial,Male
56,1,1,CFD-BM-206-114-N_degraded.jpg,NaN,1,Black,Male,Multiracial,Male
56,1,1,CFD-BM-206-114-N_degraded.jpg,0.550859113005572,1,Black,Male,Multiracial,Male
56,1,1,CFD-BF-207-004-N_degraded.jpg,NaN,1,Black,Female,Multiracial,Male
56,1,1,CFD-AF-221-147-N_degraded.jpg,NaN,1,Asian,Female,Multiracial,Male
56,1,1,CFD-LM-217-162-N_degraded.jpg,NaN,1,Latino,Male,Multiracial,Male
56,1,1,CFD-LM-217-162-N_degraded.jpg,0.620620189001784,1,Latino,Male,Multiracial,Male
56,1,1,CFD-BM-217-082-N_degraded.jpg,NaN,1,Black,Male,Multiracial,Male
56,1,1,CFD-BM-225-154-N_degraded.jpg,NaN,1,Black,Male,Multiracial,Male
57,1,1,CFD-WF-011-002-N_degraded.jpg,NaN,1,White,Female,Multiracial,Male
57,1,1,CFD-LM-228-188-N_degraded.jpg,NaN,1,Latino,Male,Multiracial,Male
57,1,1,CFD-AF-253-130-N_degraded.jpg,NaN,1,Asian,Female,Multiracial,Male
57,1,1,CFD-AM-203-086-N_degraded.jpg,NaN,1,Asian,Male,Multiracial,Male
57,1,1,CFD-AF-241-141-N_degraded.jpg,NaN,1,Asian,Female,Multiracial,Male
57,1,1,CFD-AF-241-141-N_degraded.jpg,0.472834480999154,1,Asian,Female,Multiracial,Male
57,1,1,CFD-AF-241-141-N_degraded.jpg,0.857304420002038,1,Asian,Female,Multiracial,Male
57,1,1,CFD-AF-241-141-N_degraded.jpg,0.529568912999821,1,Asian,Female,Multiracial,Male
57,1,1,CFD-AF-203-077-N_degraded.jpg,NaN,1,Asian,Female,Multiracial,Male
57,1,1,CFD-BM-214-075-N_degraded.jpg,NaN,1,Black,Male,Multiracial,Male
58,1,1,CFD-AF-248-148-N_degraded.jpg,NaN,1,Asian,Female,Multiracial,Male
58,1,1,CFD-LM-201-057-N_degraded.jpg,NaN,1,Latino,Male,Multiracial,Male
58,1,1,CFD-LM-201-057-N_degraded.jpg,0.748083001002669,1,Latino,Male,Multiracial,Male
58,1,1,CFD-LM-201-057-N_degraded.jpg,0.612499634997221,1,Latino,Male,Multiracial,Male
58,1,1,CFD-LM-201-057-N_degraded.jpg,0.508825736993458,1,Latino,Male,Multiracial,Male
58,1,1,CFD-AM-201-076-N_degraded.jpg,NaN,1,Asian,Male,Multiracial,Male
58,1,1,CFD-AM-204-122-N_degraded.jpg,NaN,1,Asian,Male,Multiracial,Male
58,1,1,CFD-AF-244-168-N_degraded.jpg,NaN,1,Asian,Female,Multiracial,Male
58,1,1,CFD-AM-207-108-N_degraded.jpg,NaN,1,Asian,Male,Multiracial,Male
58,1,1,CFD-AM-216-114-N_degraded.jpg,NaN,1,Asian,Male,Multiracial,Male
59,1,1,CFD-AM-236-090-N_degraded.jpg,NaN,1,Asian,Male,Multiracial,Male
59,1,1,CFD-AM-236-090-N_degraded.jpg,0.736104794996209,1,Asian,Male,Multiracial,Male
59,1,1,CFD-BF-051-035-N_degraded.jpg,NaN,1,Black,Female,Multiracial,Male
59,1,1,CFD-WM-006-002-N_degraded.jpg,NaN,1,White,Male,Multiracial,Male
59,1,1,CFD-LM-229-187-N_degraded.jpg,NaN,1,Latino,Male,Multiracial,Male
59,1,1,CFD-LF-217-082-N_degraded.jpg,NaN,1,Latino,Female,Multiracial,Male
59,1,1,CFD-AM-223-138-N_degraded.jpg,NaN,1,Asian,Male,Multiracial,Male
59,1,1,CFD-AM-223-138-N_degraded.jpg,0.52481527699274,1,Asian,Male,Multiracial,Male
59,1,1,CFD-AM-233-236-N_degraded.jpg,NaN,1,Asian,Male,Multiracial,Male
59,1,1,CFD-AM-233-236-N_degraded.jpg,0.547700176000944,1,Asian,Male,Multiracial,Male
60,1,1,CFD-LF-220-120-N_degraded.jpg,NaN,1,Latino,Female,Multiracial,Male
60,1,1,CFD-LF-220-120-N_degraded.jpg,0.487162513993098,1,Latino,Female,Multiracial,Male
60,1,1,CFD-BF-222-240-N_degraded.jpg,NaN,1,Black,Female,Multiracial,Male
60,1,1,CFD-AM-216-114-N_degraded.jpg,NaN,1,Asian,Male,Multiracial,Male
60,1,1,CFD-AM-216-114-N_degraded.jpg,0.516236726994975,1,Asian,Male,Multiracial,Male
60,1,1,CFD-LF-242-121-N_degraded.jpg,NaN,1,Latino,Female,Multiracial,Male
60,1,1,CFD-WM-240-125-N_degraded.jpg,NaN,1,White,Male,Multiracial,Male
60,1,1,CFD-WM-240-125-N_degraded.jpg,0.452772290998837,1,White,Male,Multiracial,Male
60,1,1,CFD-AM-217-085-N_degraded.jpg,NaN,1,Asian,Male,Multiracial,Male
60,1,1,CFD-BF-201-080-N_degraded.jpg,NaN,1,Black,Female,Multiracial,Male
61,1,0,CFD-BM-209-088-N.jpg,NaN,1,Black,Male,Multiracial,Male
61,1,0,CFD-WM-242-011-N.jpg,NaN,1,White,Male,Multiracial,Male
61,1,0,CFD-BM-208-065-N.jpg,NaN,1,Black,Male,Multiracial,Male
61,1,0,CFD-LF-241-188-N.jpg,NaN,1,Latino,Female,Multiracial,Male
61,1,0,CFD-LF-241-188-N.jpg,0.682043492997764,1,Latino,Female,Multiracial,Male
61,1,0,CFD-AM-211-052-N.jpg,NaN,1,Asian,Male,Multiracial,Male
61,1,0,CFD-BM-045-004-N.jpg,NaN,1,Black,Male,Multiracial,Male
61,1,0,CFD-BM-045-004-N.jpg,0.5457895520085,1,Black,Male,Multiracial,Male
61,1,0,CFD-BM-045-004-N.jpg,0.610542737005744,1,Black,Male,Multiracial,Male
61,1,0,CFD-AM-214-168-N.jpg,NaN,1,Asian,Male,Multiracial,Male
62,1,0,CFD-LM-224-162-N.jpg,NaN,1,Latino,Male,Multiracial,Male
62,1,0,CFD-BF-215-177-N.jpg,NaN,1,Black,Female,Multiracial,Male
62,1,0,CFD-LF-209-072-N.jpg,NaN,1,Latino,Female,Multiracial,Male
62,1,0,CFD-WF-030-002-N.jpg,NaN,1,White,Female,Multiracial,Male
62,1,0,CFD-WF-030-002-N.jpg,0.588919842994073,1,White,Female,Multiracial,Male
62,1,0,CFD-WF-030-002-N.jpg,0.564400541989016,1,White,Female,Multiracial,Male
62,1,0,CFD-WF-030-002-N.jpg,0.452932482003234,1,White,Female,Multiracial,Male
62,1,0,CFD-LF-232-199-N.jpg,NaN,1,Latino,Female,Multiracial,Male
62,1,0,CFD-BF-230-189-N.jpg,NaN,1,Black,Female,Multiracial,Male
62,1,0,CFD-WM-256-138-N.jpg,NaN,1,White,Male,Multiracial,Male
63,1,0,CFD-LF-220-120-N.jpg,NaN,1,Latino,Female,Multiracial,Male
63,1,0,CFD-LM-244-068-N.jpg,NaN,1,Latino,Male,Multiracial,Male
63,1,0,CFD-BM-216-088-N.jpg,NaN,1,Black,Male,Multiracial,Male
63,1,0,CFD-BM-216-088-N.jpg,0.449766314995941,1,Black,Male,Multiracial,Male
63,1,0,CFD-BM-218-132-N.jpg,NaN,1,Black,Male,Multiracial,Male
63,1,0,CFD-AF-253-130-N.jpg,NaN,1,Asian,Female,Multiracial,Male
63,1,0,CFD-AF-253-130-N.jpg,0.45749784099462,1,Asian,Female,Multiracial,Male
63,1,0,CFD-AF-216-106-N.jpg,NaN,1,Asian,Female,Multiracial,Male
63,1,0,CFD-BF-212-315-N.jpg,NaN,1,Black,Female,Multiracial,Male
63,1,0,CFD-BF-212-315-N.jpg,0.432444505000603,1,Black,Female,Multiracial,Male
64,1,0,CFD-WM-026-001-N.jpg,NaN,1,White,Male,Multiracial,Male
64,1,0,CFD-WM-026-001-N.jpg,0.498665616003564,1,White,Male,Multiracial,Male
64,1,0,CFD-BM-230-232-N.jpg,NaN,1,Black,Male,Multiracial,Male
64,1,0,CFD-AM-244-222-N.jpg,NaN,1,Asian,Male,Multiracial,Male
64,1,0,CFD-WF-003-003-N.jpg,NaN,1,White,Female,Multiracial,Male
64,1,0,CFD-WF-003-003-N.jpg,0.54457314600586,1,White,Female,Multiracial,Male
64,1,0,CFD-WF-001-003-N.jpg,NaN,1,White,Female,Multiracial,Male
64,1,0,CFD-WF-001-003-N.jpg,0.470054199991864,1,White,Female,Multiracial,Male
64,1,0,CFD-LM-240-013-N.jpg,NaN,1,Latino,Male,Multiracial,Male
64,1,0,CFD-LM-241-125-N.jpg,NaN,1,Latino,Male,Multiracial,Male
65,1,0,CFD-AM-234-355-N.jpg,NaN,1,Asian,Male,Multiracial,Male
65,1,0,CFD-AF-244-168-N.jpg,NaN,1,Asian,Female,Multiracial,Male
65,1,0,CFD-AF-244-168-N.jpg,0.44628183900204,1,Asian,Female,Multiracial,Male
65,1,0,CFD-WF-027-003-N.jpg,NaN,1,White,Female,Multiracial,Male
65,1,0,CFD-AM-219-101-N.jpg,NaN,1,Asian,Male,Multiracial,Male
65,1,0,CFD-AM-219-101-N.jpg,0.536787992998143,1,Asian,Male,Multiracial,Male
65,1,0,CFD-AM-215-120-N.jpg,NaN,1,Asian,Male,Multiracial,Male
65,1,0,CFD-AM-215-120-N.jpg,0.476387428003363,1,Asian,Male,Multiracial,Male
65,1,0,CFD-LM-214-165-N.jpg,NaN,1,Latino,Male,Multiracial,Male
65,1,0,CFD-WM-002-009-N.jpg,NaN,1,White,Male,Multiracial,Male
66,1,0,CFD-WM-204-031-N.jpg,NaN,1,White,Male,Multiracial,Male
66,1,0,CFD-LF-214-090-N.jpg,NaN,1,Latino,Female,Multiracial,Male
66,1,0,CFD-LM-221-216-N.jpg,NaN,1,Latino,Male,Multiracial,Male
66,1,0,CFD-LM-221-216-N.jpg,NaN,0,Latino,Male,Multiracial,Male
66,1,0,CFD-AF-221-147-N.jpg,NaN,1,Asian,Female,Multiracial,Male
66,1,0,CFD-AF-221-147-N.jpg,0.545101017996785,1,Asian,Female,Multiracial,Male
66,1,0,CFD-AF-221-147-N.jpg,0.409110920998501,1,Asian,Female,Multiracial,Male
66,1,0,CFD-WF-021-002-N.jpg,NaN,1,White,Female,Multiracial,Male
66,1,0,CFD-LM-243-075-N.jpg,NaN,1,Latino,Male,Multiracial,Male
66,1,0,CFD-AF-251-093-N.jpg,NaN,1,Asian,Female,Multiracial,Male
67,1,0,CFD-BM-208-065-N.jpg,NaN,1,Black,Male,Multiracial,Male
67,1,0,CFD-BM-214-075-N.jpg,NaN,1,Black,Male,Multiracial,Male
67,1,0,CFD-BM-214-075-N.jpg,0.488710962992627,1,Black,Male,Multiracial,Male
67,1,0,CFD-AM-221-184-N.jpg,NaN,1,Asian,Male,Multiracial,Male
67,1,0,CFD-BF-201-080-N.jpg,NaN,1,Black,Female,Multiracial,Male
67,1,0,CFD-AF-215-70-N.jpg,NaN,1,Asian,Female,Multiracial,Male
67,1,0,CFD-WM-017-002-N.jpg,NaN,1,White,Male,Multiracial,Male
67,1,0,CFD-LM-209-111-N.jpg,NaN,1,Latino,Male,Multiracial,Male
67,1,0,CFD-LM-209-111-N.jpg,0.467586189013673,1,Latino,Male,Multiracial,Male
67,1,0,CFD-LM-209-111-N.jpg,0.634996381995734,1,Latino,Male,Multiracial,Male
68,1,0,CFD-WF-019-005-N.jpg,NaN,1,White,Female,Multiracial,Male
68,1,0,CFD-LF-227-054-N.jpg,NaN,1,Latino,Female,Multiracial,Male
68,1,0,CFD-BM-223-171-N.jpg,NaN,1,Black,Male,Multiracial,Male
68,1,0,CFD-BF-201-080-N.jpg,NaN,1,Black,Female,Multiracial,Male
68,1,0,CFD-LM-246-087-N.jpg,NaN,1,Latino,Male,Multiracial,Male
68,1,0,CFD-AM-239-147-N.jpg,NaN,1,Asian,Male,Multiracial,Male
68,1,0,CFD-AM-239-147-N.jpg,0.491834461994586,1,Asian,Male,Multiracial,Male
68,1,0,CFD-AM-239-147-N.jpg,0.476438213998335,1,Asian,Male,Multiracial,Male
68,1,0,CFD-AM-239-147-N.jpg,0.403051708999556,1,Asian,Male,Multiracial,Male
68,1,0,CFD-AF-231-357-N.jpg,NaN,1,Asian,Female,Multiracial,Male
69,1,0,CFD-LM-209-111-N.jpg,NaN,1,Latino,Male,Multiracial,Male
69,1,0,CFD-BM-215-155-N.jpg,NaN,1,Black,Male,Multiracial,Male
69,1,0,CFD-BM-203-001-N.jpg,NaN,1,Black,Male,Multiracial,Male
69,1,0,CFD-WF-024-003-N.jpg,NaN,1,White,Female,Multiracial,Male
69,1,0,CFD-BF-223-250-N.jpg,NaN,1,Black,Female,Multiracial,Male
69,1,0,CFD-BF-223-250-N.jpg,0.615411713006324,1,Black,Female,Multiracial,Male
69,1,0,CFD-BF-223-250-N.jpg,0.694397195009515,1,Black,Female,Multiracial,Male
69,1,0,CFD-WF-022-017-N.jpg,NaN,1,White,Female,Multiracial,Male
69,1,0,CFD-WF-022-017-N.jpg,0.441444896001485,1,White,Female,Multiracial,Male
69,1,0,CFD-WF-012-002-N.jpg,NaN,1,White,Female,Multiracial,Male
70,1,0,CFD-WM-203-023-N.jpg,NaN,1,White,Male,Multiracial,Male
70,1,0,CFD-BM-225-154-N.jpg,NaN,1,Black,Male,Multiracial,Male
70,1,0,CFD-BM-225-154-N.jpg,0.45470772999397,1,Black,Male,Multiracial,Male
70,1,0,CFD-AF-230-193-N.jpg,NaN,1,Asian,Female,Multiracial,Male
70,1,0,CFD-WF-210-086-N.jpg,NaN,1,White,Female,Multiracial,Male
70,1,0,CFD-LF-244-096-N.jpg,NaN,1,Latino,Female,Multiracial,Male
70,1,0,CFD-LF-244-096-N.jpg,0.752572034994955,1,Latino,Female,Multiracial,Male
70,1,0,CFD-LF-244-096-N.jpg,0.617204866997781,1,Latino,Female,Multiracial,Male
70,1,0,CFD-BF-237-172-N.jpg,NaN,1,Black,Female,Multiracial,Male
70,1,0,CFD-WM-242-011-N.jpg,NaN,1,White,Male,Multiracial,Male
71,1,0,CFD-BM-203-001-N.jpg,NaN,1,Black,Male,Multiracial,Male
71,1,0,CFD-AM-208-143-N.jpg,NaN,1,Asian,Male,Multiracial,Male
71,1,0,CFD-AF-216-106-N.jpg,NaN,1,Asian,Female,Multiracial,Male
71,1,0,CFD-BM-215-155-N.jpg,NaN,1,Black,Male,Multiracial,Male
71,1,0,CFD-AM-223-138-N.jpg,NaN,1,Asian,Male,Multiracial,Male
71,1,0,CFD-LM-235-231-N.jpg,NaN,1,Latino,Male,Multiracial,Male
71,1,0,CFD-LM-235-231-N.jpg,NaN,0,Latino,Male,Multiracial,Male
71,1,0,CFD-LM-235-231-N.jpg,0.523917140002595,1,Latino,Male,Multiracial,Male
71,1,0,CFD-LM-235-231-N.jpg,0.516372318990761,1,Latino,Male,Multiracial,Male
71,1,0,CFD-BF-242-154-N.jpg,NaN,1,Black,Female,Multiracial,Male
72,1,0,CFD-AM-220-134-N.jpg,NaN,1,Asian,Male,Multiracial,Male
72,1,0,CFD-AM-220-134-N.jpg,0.634296859003371,1,Asian,Male,Multiracial,Male
72,1,0,CFD-WM-204-031-N.jpg,NaN,1,White,Male,Multiracial,Male
72,1,0,CFD-WM-204-031-N.jpg,0.490291473994148,1,White,Male,Multiracial,Male
72,1,0,CFD-BF-204-189-N.jpg,NaN,1,Black,Female,Multiracial,Male
72,1,0,CFD-WM-020-001-N.jpg,NaN,1,White,Male,Multiracial,Male
72,1,0,CFD-AM-237-154-N.jpg,NaN,1,Asian,Male,Multiracial,Male
72,1,0,CFD-AM-237-154-N.jpg,0.461262428987538,1,Asian,Male,Multiracial,Male
72,1,0,CFD-BF-243-164-N.jpg,NaN,1,Black,Female,Multiracial,Male
72,1,0,CFD-AF-239-171-N.jpg,NaN,1,Asian,Female,Multiracial,Male
